ID,age,sex,eye_d,training,block,trial,condition,vertical_pos,preonset,onset_timestamp,detection_timestamp,detection,detected,obj_type,indicated_obj,obj_location,indicated_location,decision_time,accuracy
47,19,Female,Right,True,0,1,Congruent,0.004845398,0.3350006,2022-08-31 14:50:58.009,2022-08-31 14:51:12.014,14,False,3,1,4,2,30.20927,False
47,19,Female,Right,True,0,2,Novel,-0.002857639,0.5898937,2022-08-31 14:51:43.836,2022-08-31 14:51:57.844,14,False,2,1,4,3,9.768196,False
47,19,Female,Right,True,0,3,Random,0.004654722,0.3250042,2022-08-31 14:52:08.959,2022-08-31 14:52:21.694,12.73305,True,1,1,4,4,3.332386,True
47,19,Female,Right,True,0,4,Incongruent,-0.002610334,0.4070638,2022-08-31 14:52:26.450,2022-08-31 14:52:33.312,6.857241,True,4,4,3,3,3.040833,True
47,19,Female,Right,True,0,5,Incongruent,0.003543796,0.4892202,2022-08-31 14:52:37.854,2022-08-31 14:52:44.246,6.3892,True,4,4,2,2,2.550365,True
47,19,Female,Right,True,0,6,Incongruent,0.003190216,0.5933249,2022-08-31 14:52:48.399,2022-08-31 14:52:54.210,5.808299,True,4,4,2,2,3.215922,True
47,19,Female,Right,True,0,7,Congruent,-0.001569216,0.5238674,2022-08-31 14:52:58.965,2022-08-31 14:53:04.800,5.828982,True,3,3,1,1,2.960072,True
47,19,Female,Right,True,0,8,Incongruent,-0.0006236536,0.4296654,2022-08-31 14:53:09.197,2022-08-31 14:53:15.368,6.166209,True,4,4,1,1,2.65794,True
47,19,Female,Right,True,0,9,Congruent,-0.000957604,0.586009,2022-08-31 14:53:19.618,2022-08-31 14:53:23.554,3.931573,True,3,3,4,4,2.839083,True
47,19,Female,Right,True,0,10,Congruent,0.004523996,0.342422,2022-08-31 14:53:27.738,2022-08-31 14:53:33.283,5.540225,True,3,3,4,4,1.856624,True
47,19,Female,Right,True,0,11,Novel,-0.001916626,0.4818531,2022-08-31 14:53:36.640,2022-08-31 14:53:46.787,10.14257,True,2,2,3,3,2.639029,True
47,19,Female,Right,True,0,12,Novel,-0.002832218,0.4619828,2022-08-31 14:53:50.906,2022-08-31 14:54:00.246,9.337516,True,2,2,3,3,1.561988,True
47,19,Female,Right,True,0,13,Novel,-0.0007211142,0.3272775,2022-08-31 14:54:03.159,2022-08-31 14:54:07.585,4.424139,True,2,2,4,4,1.859124,True
47,19,Female,Right,True,0,14,Random,-0.004224829,0.3561084,2022-08-31 14:54:10.820,2022-08-31 14:54:15.407,4.578949,True,1,1,4,4,1.626016,True
47,19,Female,Right,True,0,15,Random,-0.001781421,0.5099152,2022-08-31 14:54:18.550,2022-08-31 14:54:22.722,4.165749,True,1,1,3,3,1.325143,True
47,19,Female,Right,True,0,16,Random,0.004279451,0.3412738,2022-08-31 14:54:25.400,2022-08-31 14:54:32.931,7.529217,True,1,1,2,2,1.743848,True
47,19,Female,Right,True,0,17,Incongruent,0.004987943,0.3915383,2022-08-31 14:54:36.087,2022-08-31 14:54:44.981,8.890702,True,4,4,2,2,1.317391,True
47,19,Female,Right,True,0,18,Novel,-0.004748035,0.5889609,2022-08-31 14:54:47.892,2022-08-31 14:54:51.091,3.194538,True,2,2,1,1,2.035876,True
47,19,Female,Right,True,0,19,Random,0.0003390224,0.4906261,2022-08-31 14:54:54.628,2022-08-31 14:55:02.407,7.773481,True,1,1,3,3,1.263431,True
47,19,Female,Right,True,0,20,Congruent,-0.004699234,0.3727942,2022-08-31 14:55:05.061,2022-08-31 14:55:11.232,6.166159,True,3,3,4,4,1.809489,True
47,19,Female,Right,False,1,1,Novel,-0.001699148,0.3156918,2022-08-31 15:03:18.734,2022-08-31 15:03:25.748,7,False,2,1,3,4,3.806604,False
47,19,Female,Right,False,1,2,Congruent,0.003267764,0.5155685,2022-08-31 15:03:31.099,2022-08-31 15:03:38.113,7,False,3,3,1,1,1.566593,True
47,19,Female,Right,False,1,3,Novel,-0.004126044,0.4481796,2022-08-31 15:03:41.140,2022-08-31 15:03:48.154,7,False,2,3,3,4,3.174872,False
47,19,Female,Right,False,1,4,Random,-0.004263368,0.4800422,2022-08-31 15:03:52.835,2022-08-31 15:03:59.654,6.812086,True,1,1,3,3,1.452809,True
47,19,Female,Right,False,1,5,Congruent,-0.002965996,0.3560878,2022-08-31 15:04:02.498,2022-08-31 15:04:09.511,7,False,3,1,1,2,3.018734,False
47,19,Female,Right,False,1,6,Incongruent,0.003974766,0.4708548,2022-08-31 15:04:14.013,2022-08-31 15:04:19.156,5.13773,True,4,4,2,2,0.8497753,True
47,19,Female,Right,False,1,7,Random,-0.001180047,0.3559053,2022-08-31 15:04:21.385,2022-08-31 15:04:28.400,7,False,1,2,4,1,3.175863,False
47,19,Female,Right,False,1,8,Random,-0.00105478,0.4175434,2022-08-31 15:04:33.013,2022-08-31 15:04:40.028,7,False,1,1,3,3,3.468589,True
47,19,Female,Right,False,1,9,Congruent,0.003308794,0.3221312,2022-08-31 15:04:44.842,2022-08-31 15:04:51.856,7,False,3,1,1,2,1.989606,False
47,19,Female,Right,False,1,10,Incongruent,-0.001716983,0.3048345,2022-08-31 15:04:55.173,2022-08-31 15:04:59.535,4.356137,True,4,4,2,2,1.306166,True
47,19,Female,Right,False,1,11,Congruent,0.0001533288,0.3079664,2022-08-31 15:05:02.166,2022-08-31 15:05:09.180,7,False,3,3,4,4,1.581851,True
47,19,Female,Right,False,1,12,Incongruent,0.004252639,0.5411949,2022-08-31 15:05:12.319,2022-08-31 15:05:19.333,7,False,4,1,2,4,2.128594,False
47,19,Female,Right,False,1,13,Congruent,0.004762243,0.5470566,2022-08-31 15:05:23.032,2022-08-31 15:05:30.046,7,False,3,1,4,3,2.035122,False
47,19,Female,Right,False,1,14,Incongruent,0.003212972,0.3833306,2022-08-31 15:05:33.475,2022-08-31 15:05:37.075,3.597407,True,4,4,2,2,1.008687,True
47,19,Female,Right,False,1,15,Incongruent,-0.0009817998,0.3649743,2022-08-31 15:05:39.485,2022-08-31 15:05:46.499,7,False,4,4,1,1,2.150841,True
47,19,Female,Right,False,1,16,Congruent,-9.799562E-05,0.4536563,2022-08-31 15:05:50.118,2022-08-31 15:05:55.908,5.786648,True,3,3,2,2,1.092994,True
47,19,Female,Right,False,1,17,Novel,-0.004186402,0.5795299,2022-08-31 15:05:58.595,2022-08-31 15:06:05.123,6.522218,True,2,2,3,3,1.405951,True
47,19,Female,Right,False,1,18,Congruent,0.004704459,0.4736442,2022-08-31 15:06:08.012,2022-08-31 15:06:13.623,5.607952,True,3,3,2,2,0.8252868,True
47,19,Female,Right,False,1,19,Congruent,0.002118226,0.5042124,2022-08-31 15:06:15.965,2022-08-31 15:06:20.928,4.959962,True,3,3,2,2,0.8052744,True
47,19,Female,Right,False,1,20,Random,-0.004965754,0.4552405,2022-08-31 15:06:23.192,2022-08-31 15:06:30.206,7,False,1,1,4,4,2.912185,True
47,19,Female,Right,False,1,21,Novel,-0.00377618,0.478686,2022-08-31 15:06:34.618,2022-08-31 15:06:37.079,2.456913,True,2,2,4,4,1.322162,True
47,19,Female,Right,False,1,22,Incongruent,-0.0009378023,0.5704287,2022-08-31 15:06:39.991,2022-08-31 15:06:47.006,7,False,4,4,3,3,1.436826,True
47,19,Female,Right,False,1,23,Congruent,-0.0030948,0.3607404,2022-08-31 15:06:49.809,2022-08-31 15:06:53.456,3.640216,True,3,3,1,1,1.40547,True
47,19,Female,Right,False,1,24,Novel,0.002080939,0.3752533,2022-08-31 15:06:56.256,2022-08-31 15:06:59.298,3.038295,True,2,2,1,1,1.57128,True
47,19,Female,Right,False,1,25,Incongruent,-0.004273069,0.5929893,2022-08-31 15:07:02.467,2022-08-31 15:07:05.485,3.013684,True,4,4,2,2,0.7510819,True
47,19,Female,Right,False,1,26,Novel,0.002277665,0.5739896,2022-08-31 15:07:07.827,2022-08-31 15:07:10.221,2.388614,True,2,2,4,4,0.9858171,True
47,19,Female,Right,False,1,27,Random,0.004662074,0.4320103,2022-08-31 15:07:12.653,2022-08-31 15:07:15.738,3.082734,True,1,1,3,3,0.7854158,True
47,19,Female,Right,False,1,28,Incongruent,0.002519871,0.5214934,2022-08-31 15:07:18.071,2022-08-31 15:07:21.312,3.24018,True,4,4,1,1,4.316147,True
47,19,Female,Right,False,1,29,Random,0.002321808,0.3757694,2022-08-31 15:07:27.004,2022-08-31 15:07:31.254,4.243669,True,1,1,3,3,0.8933457,True
47,19,Female,Right,False,1,30,Incongruent,0.0001653675,0.4644079,2022-08-31 15:07:33.616,2022-08-31 15:07:36.974,3.35078,True,4,4,1,1,1.249204,True
47,19,Female,Right,False,1,31,Random,-0.001147596,0.4408106,2022-08-31 15:07:39.682,2022-08-31 15:07:42.435,2.746364,True,1,1,2,2,1.007875,True
47,19,Female,Right,False,1,32,Novel,0.004252908,0.3819726,2022-08-31 15:07:44.833,2022-08-31 15:07:47.005,2.168368,True,2,2,3,3,6.241034,True
47,19,Female,Right,False,1,33,Congruent,0.004896744,0.3033677,2022-08-31 15:07:54.551,2022-08-31 15:07:58.060,3.504422,True,3,3,2,2,0.9376019,True
47,19,Female,Right,False,1,34,Random,-0.003965658,0.5415887,2022-08-31 15:08:00.568,2022-08-31 15:08:04.271,3.707578,True,1,1,4,4,1.232818,True
47,19,Female,Right,False,1,35,Incongruent,0.004089428,0.3521038,2022-08-31 15:08:06.870,2022-08-31 15:08:12.550,5.674066,True,4,4,3,3,1.16365,True
47,19,Female,Right,False,1,36,Incongruent,0.004450976,0.3213595,2022-08-31 15:08:15.058,2022-08-31 15:08:18.592,3.530606,True,4,4,2,2,1.539257,True
47,19,Female,Right,False,1,37,Congruent,-0.001093888,0.5131861,2022-08-31 15:08:21.661,2022-08-31 15:08:25.282,3.619118,True,3,3,4,4,1.477211,True
47,19,Female,Right,False,1,38,Novel,-0.004193121,0.3131983,2022-08-31 15:08:28.080,2022-08-31 15:08:32.106,4.021645,True,2,2,4,4,1.232743,True
47,19,Female,Right,False,1,39,Novel,0.0002570264,0.5538551,2022-08-31 15:08:34.917,2022-08-31 15:08:38.049,3.128226,True,2,2,1,1,1.924673,True
47,19,Female,Right,False,1,40,Incongruent,-0.0001776619,0.3046844,2022-08-31 15:08:41.285,2022-08-31 15:08:46.115,4.82564,True,4,4,2,2,1.202347,True
47,19,Female,Right,False,1,41,Random,0.00395273,0.5853455,2022-08-31 15:08:48.913,2022-08-31 15:08:52.201,3.282969,True,1,1,4,4,1.048539,True
47,19,Female,Right,False,1,42,Random,-2.90568E-05,0.3720023,2022-08-31 15:08:54.643,2022-08-31 15:08:57.082,2.435829,True,1,1,4,4,0.9866821,True
47,19,Female,Right,False,1,43,Random,0.004304653,0.4737475,2022-08-31 15:08:59.558,2022-08-31 15:09:02.738,3.171819,True,1,1,3,3,1.20518,True
47,19,Female,Right,False,1,44,Novel,-0.001966955,0.473465,2022-08-31 15:09:05.434,2022-08-31 15:09:09.593,4.154985,True,2,2,4,4,1.003925,True
47,19,Female,Right,False,1,45,Novel,-0.001940357,0.5617814,2022-08-31 15:09:12.179,2022-08-31 15:09:14.640,2.457272,True,2,2,3,3,0.807596,True
47,19,Female,Right,False,1,46,Incongruent,0.004345714,0.399964,2022-08-31 15:09:16.860,2022-08-31 15:09:19.433,2.568797,True,4,4,3,3,1.159608,True
47,19,Female,Right,False,1,47,Congruent,-0.001944472,0.3968798,2022-08-31 15:09:21.997,2022-08-31 15:09:26.090,4.089411,True,3,3,2,2,0.9519445,True
47,19,Female,Right,False,1,48,Congruent,0.00085301,0.5825292,2022-08-31 15:09:28.633,2022-08-31 15:09:32.568,3.932834,True,3,3,1,1,2.389356,True
47,19,Female,Right,False,1,49,Random,-0.001974906,0.5997047,2022-08-31 15:09:36.575,2022-08-31 15:09:39.215,2.636142,True,1,1,4,4,1.298866,True
47,19,Female,Right,False,1,50,Random,0.003224074,0.4889105,2022-08-31 15:09:42.005,2022-08-31 15:09:45.672,3.662187,True,1,1,3,3,1.249119,True
47,19,Female,Right,False,1,51,Novel,-0.001003302,0.4754523,2022-08-31 15:09:48.404,2022-08-31 15:09:52.942,4.535058,True,2,2,3,3,0.7946408,True
47,19,Female,Right,False,1,52,Novel,-0.002607991,0.4929361,2022-08-31 15:09:55.250,2022-08-31 15:09:58.606,3.350307,True,2,2,3,3,0.9198645,True
47,19,Female,Right,False,2,1,Incongruent,-0.001054439,0.5258017,2022-08-31 15:16:54.612,2022-08-31 15:16:59.844,5.22794,True,4,4,3,3,1.86618,True
47,19,Female,Right,False,2,2,Random,0.001442151,0.4108008,2022-08-31 15:17:03.145,2022-08-31 15:17:05.961,2.813357,True,1,1,3,3,0.8084788,True
47,19,Female,Right,False,2,3,Congruent,-0.00319015,0.5770121,2022-08-31 15:17:08.361,2022-08-31 15:17:11.245,2.882097,True,3,3,2,2,1.105632,True
47,19,Female,Right,False,2,4,Congruent,-0.0002667205,0.5108249,2022-08-31 15:17:13.870,2022-08-31 15:17:17.582,3.707655,True,3,3,4,4,1.630595,True
47,19,Female,Right,False,2,5,Novel,-0.00328501,0.5872435,2022-08-31 15:17:20.802,2022-08-31 15:17:23.153,2.344209,True,2,2,3,3,1.117854,True
47,19,Female,Right,False,2,6,Novel,-0.0005188687,0.332396,2022-08-31 15:17:25.640,2022-08-31 15:17:27.879,2.233422,True,2,2,1,1,1.449594,True
47,19,Female,Right,False,2,7,Random,-0.003890886,0.5505268,2022-08-31 15:17:30.901,2022-08-31 15:17:33.116,2.212725,True,1,1,4,4,1.00853,True
47,19,Female,Right,False,2,8,Congruent,-0.0004241997,0.5162499,2022-08-31 15:17:35.659,2022-08-31 15:17:39.147,3.486526,True,3,3,1,1,1.210304,True
47,19,Female,Right,False,2,9,Random,-0.003021164,0.3572938,2022-08-31 15:17:41.735,2022-08-31 15:17:44.220,2.478822,True,1,1,2,2,1.020075,True
47,19,Female,Right,False,2,10,Novel,0.001059284,0.4646065,2022-08-31 15:17:46.706,2022-08-31 15:17:49.615,2.903158,True,2,2,1,1,1.004056,True
47,19,Female,Right,False,2,11,Incongruent,-0.003291838,0.5652356,2022-08-31 15:17:52.202,2022-08-31 15:17:55.847,3.640493,True,4,4,3,3,1.830749,True
47,19,Female,Right,False,2,12,Novel,-0.001868949,0.461343,2022-08-31 15:17:59.162,2022-08-31 15:18:02.069,2.904648,True,2,2,1,1,1.21226,True
47,19,Female,Right,False,2,13,Novel,0.001612259,0.3150451,2022-08-31 15:18:04.622,2022-08-31 15:18:07.151,2.522805,True,2,2,1,1,0.9623875,True
47,19,Female,Right,False,2,14,Congruent,-0.002851891,0.3948628,2022-08-31 15:18:09.515,2022-08-31 15:18:12.355,2.837208,True,3,3,1,1,1.075391,True
47,19,Female,Right,False,2,15,Random,-0.003182975,0.5686299,2022-08-31 15:18:15.013,2022-08-31 15:18:18.343,3.328913,True,1,1,3,3,0.828737,True
47,19,Female,Right,False,2,16,Congruent,0.000585516,0.4572378,2022-08-31 15:18:20.652,2022-08-31 15:18:23.203,2.547258,True,3,3,1,1,1.061438,True
47,19,Female,Right,False,2,17,Novel,0.002971769,0.4830401,2022-08-31 15:18:25.756,2022-08-31 15:18:27.636,1.875551,True,2,2,1,1,0.9436522,True
47,19,Female,Right,False,2,18,Congruent,-0.003800482,0.316351,2022-08-31 15:18:29.921,2022-08-31 15:18:32.831,2.904557,True,3,3,1,1,0.8304592,True
47,19,Female,Right,False,2,19,Incongruent,-0.0006327755,0.5068687,2022-08-31 15:18:35.183,2022-08-31 15:18:38.583,3.395624,True,4,4,3,3,1.561007,True
47,19,Female,Right,False,2,20,Congruent,0.0005122833,0.3475665,2022-08-31 15:18:41.505,2022-08-31 15:18:44.213,2.704471,True,3,3,2,2,1.400315,True
47,19,Female,Right,False,2,21,Congruent,-0.0001519495,0.3104856,2022-08-31 15:18:46.933,2022-08-31 15:18:49.708,2.768715,True,3,3,1,1,1.075246,True
47,19,Female,Right,False,2,22,Random,-0.0002731546,0.4434792,2022-08-31 15:18:52.250,2022-08-31 15:18:54.712,2.455868,True,1,1,4,4,0.896566,True
47,19,Female,Right,False,2,23,Incongruent,-0.004840247,0.37198,2022-08-31 15:18:57.020,2022-08-31 15:18:59.773,2.748892,True,4,4,1,1,1.856892,True
47,19,Female,Right,False,2,24,Random,0.001714096,0.4746586,2022-08-31 15:19:03.131,2022-08-31 15:19:05.837,2.703416,True,1,1,3,3,1.209688,True
47,19,Female,Right,False,2,25,Congruent,0.003356976,0.4534429,2022-08-31 15:19:08.502,2022-08-31 15:19:11.076,2.567744,True,3,3,4,4,1.169519,True
47,19,Female,Right,False,2,26,Incongruent,0.004809312,0.3922031,2022-08-31 15:19:13.653,2022-08-31 15:19:16.587,2.926981,True,4,4,3,3,0.9232437,True
47,19,Female,Right,False,2,27,Incongruent,0.002927445,0.4008784,2022-08-31 15:19:18.924,2022-08-31 15:19:22.211,3.283155,True,4,4,1,1,1.501006,True
47,19,Female,Right,False,2,28,Novel,0.002426205,0.4170778,2022-08-31 15:19:25.136,2022-08-31 15:19:27.217,2.07947,True,2,2,3,3,1.119588,True
47,19,Female,Right,False,2,29,Random,-0.003904411,0.4236639,2022-08-31 15:19:29.793,2022-08-31 15:19:32.320,2.524811,True,1,1,2,2,1.09507,True
47,19,Female,Right,False,2,30,Incongruent,-0.001280027,0.5408121,2022-08-31 15:19:34.964,2022-08-31 15:19:38.765,3.796921,True,4,4,1,1,1.300967,True
47,19,Female,Right,False,2,31,Incongruent,0.002587925,0.5664649,2022-08-31 15:19:41.644,2022-08-31 15:19:45.042,3.39706,True,4,4,1,1,0.9681064,True
47,19,Female,Right,False,2,32,Incongruent,-0.0029674,0.4364564,2022-08-31 15:19:47.482,2022-08-31 15:19:50.984,3.508046,True,4,4,2,2,1.009705,True
47,19,Female,Right,False,2,33,Random,-0.003352573,0.5628829,2022-08-31 15:19:53.573,2022-08-31 15:19:56.325,2.748878,True,1,1,4,4,1.089415,True
47,19,Female,Right,False,2,34,Congruent,0.004900677,0.5256367,2022-08-31 15:19:58.979,2022-08-31 15:20:01.442,2.459011,True,3,3,4,4,1.114982,True
47,19,Female,Right,False,2,35,Novel,-0.003340065,0.3353707,2022-08-31 15:20:03.904,2022-08-31 15:20:06.187,2.278758,True,2,2,1,1,1.498923,True
47,19,Female,Right,False,2,36,Novel,0.001793659,0.5308877,2022-08-31 15:20:09.255,2022-08-31 15:20:13.171,3.908854,True,2,2,1,1,0.9669043,True
47,19,Female,Right,False,2,37,Congruent,0.003038034,0.3185402,2022-08-31 15:20:15.476,2022-08-31 15:20:18.277,2.792113,True,3,3,1,1,0.9288715,True
47,19,Female,Right,False,2,38,Novel,0.00149435,0.3090626,2022-08-31 15:20:20.536,2022-08-31 15:20:24.115,3.573132,True,2,2,4,4,0.8922697,True
47,19,Female,Right,False,2,39,Novel,0.00201161,0.4826487,2022-08-31 15:20:26.502,2022-08-31 15:20:28.761,2.257219,True,2,2,3,3,0.8042333,True
47,19,Female,Right,False,2,40,Congruent,0.004493714,0.3820785,2022-08-31 15:20:30.971,2022-08-31 15:20:33.655,2.680106,True,3,3,2,2,0.9293621,True
47,19,Female,Right,False,2,41,Random,-0.00375978,0.3585641,2022-08-31 15:20:35.974,2022-08-31 15:20:38.412,2.435326,True,1,1,4,4,0.9871197,True
47,19,Female,Right,False,2,42,Congruent,0.001227173,0.4149962,2022-08-31 15:20:40.822,2022-08-31 15:20:43.957,3.128182,True,3,3,4,4,0.7917567,True
47,19,Female,Right,False,2,43,Incongruent,0.004709733,0.4629599,2022-08-31 15:20:46.215,2022-08-31 15:20:49.437,3.217483,True,4,4,2,2,0.7585755,True
47,19,Female,Right,False,2,44,Incongruent,-0.004530225,0.3944951,2022-08-31 15:20:51.611,2022-08-31 15:20:55.972,4.355132,True,4,4,1,1,1.385003,True
47,19,Female,Right,False,2,45,Random,0.002808614,0.3543756,2022-08-31 15:20:58.726,2022-08-31 15:21:01.634,2.904808,True,1,1,4,4,0.8522524,True
47,19,Female,Right,False,2,46,Incongruent,0.001934783,0.4479009,2022-08-31 15:21:03.942,2022-08-31 15:21:06.358,2.414477,True,4,4,1,1,0.8723406,True
47,19,Female,Right,False,2,47,Novel,-0.004931166,0.3197382,2022-08-31 15:21:08.579,2022-08-31 15:21:11.687,3.105968,True,2,2,1,1,2.124743,True
47,19,Female,Right,False,2,48,Random,-0.0001263171,0.4652709,2022-08-31 15:21:15.292,2022-08-31 15:21:17.999,2.704212,True,1,1,2,2,0.7619015,True
47,19,Female,Right,False,2,49,Novel,0.001058425,0.4429705,2022-08-31 15:21:20.217,2022-08-31 15:21:22.567,2.345252,True,2,2,1,1,1.233966,True
47,19,Female,Right,False,2,50,Random,0.003667319,0.4263734,2022-08-31 15:21:25.255,2022-08-31 15:21:28.077,2.814824,True,1,1,4,4,0.8041809,True
47,19,Female,Right,False,2,51,Random,-0.004349464,0.3098766,2022-08-31 15:21:30.204,2022-08-31 15:21:32.753,2.54493,True,1,1,2,2,0.6708906,True
47,19,Female,Right,False,2,52,Incongruent,0.0006110291,0.3404576,2022-08-31 15:21:34.784,2022-08-31 15:21:38.382,3.599519,True,4,4,1,1,1.125138,True
47,19,Female,Right,False,3,1,Congruent,-0.003816365,0.3787979,2022-08-31 15:28:34.376,2022-08-31 15:28:37.977,3.597564,True,3,3,2,2,0.8273254,True
47,19,Female,Right,False,3,2,Incongruent,-0.002428583,0.3067775,2022-08-31 15:28:40.129,2022-08-31 15:28:42.769,2.637239,True,4,4,2,2,0.6735182,True
47,19,Female,Right,False,3,3,Random,-0.004822739,0.5392691,2022-08-31 15:28:45.011,2022-08-31 15:28:47.762,2.747482,True,1,1,2,2,0.6030536,True
47,19,Female,Right,False,3,4,Congruent,-0.003097229,0.5209523,2022-08-31 15:28:49.903,2022-08-31 15:28:54.061,4.154109,True,3,3,1,1,1.41311,True
47,19,Female,Right,False,3,5,Random,0.004577021,0.3130901,2022-08-31 15:28:56.816,2022-08-31 15:28:59.345,2.522794,True,1,1,4,4,1.405495,True
47,19,Female,Right,False,3,6,Incongruent,0.00224495,0.4444363,2022-08-31 15:29:02.212,2022-08-31 15:29:05.610,3.39693,True,4,4,2,2,0.6736715,True
47,19,Female,Right,False,3,7,Incongruent,-0.003433414,0.4319963,2022-08-31 15:29:07.719,2022-08-31 15:29:10.783,3.063663,True,4,4,3,3,3.104386,True
47,19,Female,Right,False,3,8,Novel,0.004895139,0.5105013,2022-08-31 15:29:15.415,2022-08-31 15:29:18.683,3.262863,True,2,2,3,3,1.039674,True
47,19,Female,Right,False,3,9,Incongruent,-0.003753779,0.526221,2022-08-31 15:29:21.258,2022-08-31 15:29:24.342,3.082765,True,4,4,1,1,1.052988,True
47,19,Female,Right,False,3,10,Incongruent,-0.001767003,0.4611584,2022-08-31 15:29:26.864,2022-08-31 15:29:29.839,2.969848,True,4,4,2,2,0.8732815,True
47,19,Female,Right,False,3,11,Random,0.004799819,0.5332909,2022-08-31 15:29:32.259,2022-08-31 15:29:35.659,3.393289,True,1,1,2,2,0.6829433,True
47,19,Female,Right,False,3,12,Novel,0.002669712,0.3463216,2022-08-31 15:29:37.699,2022-08-31 15:29:40.205,2.501955,True,2,2,1,1,1.137431,True
47,19,Female,Right,False,3,13,Congruent,0.001214647,0.3382055,2022-08-31 15:29:42.691,2022-08-31 15:29:45.755,3.061382,True,3,3,1,1,1.390427,True
47,19,Female,Right,False,3,14,Random,-0.002082869,0.3607006,2022-08-31 15:29:48.532,2022-08-31 15:29:51.666,3.127569,True,1,1,3,3,0.7839656,True
47,19,Female,Right,False,3,15,Congruent,-0.004352586,0.3648528,2022-08-31 15:29:53.851,2022-08-31 15:29:56.513,2.657636,True,3,3,2,2,0.7910418,True
47,19,Female,Right,False,3,16,Random,-0.001677435,0.5357646,2022-08-31 15:29:58.853,2022-08-31 15:30:01.295,2.434315,True,1,1,3,3,0.8312535,True
47,19,Female,Right,False,3,17,Incongruent,0.003577461,0.4912814,2022-08-31 15:30:03.645,2022-08-31 15:30:06.197,2.546504,True,4,4,2,2,0.7623743,True
47,19,Female,Right,False,3,18,Incongruent,0.002822926,0.3785123,2022-08-31 15:30:08.359,2022-08-31 15:30:11.624,3.26187,True,4,4,1,1,1.053178,True
47,19,Female,Right,False,3,19,Congruent,0.001422331,0.5970639,2022-08-31 15:30:14.291,2022-08-31 15:30:17.736,3.440408,True,3,3,2,2,0.7568213,True
47,19,Female,Right,False,3,20,Incongruent,0.0006696745,0.4360546,2022-08-31 15:30:19.932,2022-08-31 15:30:22.843,2.904521,True,4,4,2,2,0.7558917,True
47,19,Female,Right,False,3,21,Incongruent,0.003288959,0.5657246,2022-08-31 15:30:25.170,2022-08-31 15:30:27.677,2.501995,True,4,4,2,2,0.5548471,True
47,19,Female,Right,False,3,22,Random,0.003469672,0.338578,2022-08-31 15:30:29.594,2022-08-31 15:30:32.392,2.792765,True,1,1,2,2,0.6698747,True
47,19,Female,Right,False,3,23,Novel,-0.0004913979,0.4945686,2022-08-31 15:30:34.563,2022-08-31 15:30:37.093,2.524175,True,2,2,1,1,1.048081,True
47,19,Female,Right,False,3,24,Congruent,0.001466354,0.4936292,2022-08-31 15:30:39.646,2022-08-31 15:30:42.353,2.70263,True,3,3,4,4,2.120326,True
47,19,Female,Right,False,3,25,Novel,-0.001452321,0.4552106,2022-08-31 15:30:45.945,2022-08-31 15:30:49.166,3.216811,True,2,2,1,1,0.8398381,True
47,19,Female,Right,False,3,26,Novel,0.003107104,0.3380582,2022-08-31 15:30:51.352,2022-08-31 15:30:53.881,2.525838,True,2,2,1,1,0.9616552,True
47,19,Female,Right,False,3,27,Novel,-0.0009896834,0.3311674,2022-08-31 15:30:56.199,2022-08-31 15:30:59.399,3.193108,True,2,2,4,4,1.03232,True
47,19,Female,Right,False,3,28,Congruent,-0.0001347857,0.4115486,2022-08-31 15:31:01.874,2022-08-31 15:31:04.694,2.816737,True,3,3,1,1,1.003262,True
47,19,Female,Right,False,3,29,Random,0.002845087,0.5957732,2022-08-31 15:31:07.315,2022-08-31 15:31:09.598,2.278586,True,1,1,3,3,0.8086351,True
47,19,Female,Right,False,3,30,Incongruent,-0.002369557,0.3500152,2022-08-31 15:31:11.793,2022-08-31 15:31:15.975,4.175895,True,4,4,3,3,0.9585336,True
47,19,Female,Right,False,3,31,Novel,-0.004155524,0.4039254,2022-08-31 15:31:18.350,2022-08-31 15:31:21.370,3.01652,True,2,2,1,1,0.9865484,True
47,19,Female,Right,False,3,32,Congruent,0.0008375398,0.4785358,2022-08-31 15:31:23.856,2022-08-31 15:31:27.190,3.328167,True,3,3,2,2,0.5781744,True
47,19,Female,Right,False,3,33,Incongruent,0.0008757217,0.433396,2022-08-31 15:31:29.219,2022-08-31 15:31:33.512,4.289449,True,4,4,1,1,1.00662,True
47,19,Female,Right,False,3,34,Novel,-0.003413067,0.4956699,2022-08-31 15:31:36.042,2022-08-31 15:31:39.977,3.931811,True,2,2,3,3,1.072417,True
47,19,Female,Right,False,3,35,Congruent,0.0008220547,0.4630232,2022-08-31 15:31:42.523,2022-08-31 15:31:46.056,3.529239,True,3,3,4,4,1.028554,True
47,19,Female,Right,False,3,36,Random,-0.001600317,0.3356542,2022-08-31 15:31:48.453,2022-08-31 15:31:51.920,3.463075,True,1,1,4,4,0.8283663,True
47,19,Female,Right,False,3,37,Congruent,0.004742895,0.5415245,2022-08-31 15:31:54.316,2022-08-31 15:31:56.890,2.567593,True,3,3,2,2,0.9628406,True
47,19,Female,Right,False,3,38,Novel,0.003386949,0.4952813,2022-08-31 15:31:59.366,2022-08-31 15:32:02.183,2.814768,True,2,2,3,3,0.8002412,True
47,19,Female,Right,False,3,39,Random,0.001887778,0.5174475,2022-08-31 15:32:04.525,2022-08-31 15:32:07.077,2.547133,True,1,1,4,4,0.9854846,True
47,19,Female,Right,False,3,40,Novel,-0.00250761,0.5920146,2022-08-31 15:32:09.676,2022-08-31 15:32:12.246,2.569872,True,2,2,3,3,0.7662187,True
47,19,Female,Right,False,3,41,Novel,0.002452919,0.3416089,2022-08-31 15:32:14.390,2022-08-31 15:32:16.761,2.368644,True,2,2,4,4,0.849377,True
47,19,Female,Right,False,3,42,Random,0.001642729,0.3899585,2022-08-31 15:32:19.002,2022-08-31 15:32:21.216,2.212157,True,1,1,2,2,0.8998615,True
47,19,Female,Right,False,3,43,Congruent,-0.003002061,0.5226904,2022-08-31 15:32:23.661,2022-08-31 15:32:26.366,2.702402,True,3,3,4,4,0.981939,True
47,19,Female,Right,False,3,44,Congruent,-0.004402906,0.4334719,2022-08-31 15:32:28.788,2022-08-31 15:32:31.651,2.859288,True,3,3,4,4,1.420755,True
47,19,Female,Right,False,3,45,Incongruent,-0.00381391,0.4831037,2022-08-31 15:32:34.572,2022-08-31 15:32:39.424,4.845999,True,4,4,2,2,0.8972304,True
47,19,Female,Right,False,3,46,Incongruent,0.0007855757,0.4991292,2022-08-31 15:32:41.844,2022-08-31 15:32:44.439,2.592038,True,4,4,3,3,1.611455,True
47,19,Female,Right,False,3,47,Random,-0.004655168,0.5449481,2022-08-31 15:32:47.618,2022-08-31 15:32:50.460,2.83584,True,1,1,4,4,0.7619901,True
47,19,Female,Right,False,3,48,Random,-0.0002939622,0.5325287,2022-08-31 15:32:52.768,2022-08-31 15:32:55.363,2.592387,True,1,1,3,3,0.5608653,True
47,19,Female,Right,False,3,49,Congruent,-0.00355921,0.3210556,2022-08-31 15:32:57.258,2022-08-31 15:33:00.324,3.06083,True,3,3,2,2,1.007556,True
47,19,Female,Right,False,3,50,Novel,0.001915096,0.5719899,2022-08-31 15:33:02.931,2022-08-31 15:33:05.573,2.636473,True,2,2,1,1,1.271376,True
47,19,Female,Right,False,3,51,Novel,0.001701807,0.4112561,2022-08-31 15:33:08.271,2022-08-31 15:33:10.354,2.07588,True,2,2,1,1,1.030226,True
47,19,Female,Right,False,3,52,Random,-0.00193018,0.4157299,2022-08-31 15:33:12.818,2022-08-31 15:33:15.882,3.061175,True,1,1,3,3,0.8702316,True
