ID,age,sex,eye_d,training,block,trial,condition,vertical_pos,preonset,onset_timestamp,detection_timestamp,detection,detected,obj_type,indicated_obj,obj_location,indicated_location,decision_time,accuracy
1,25,Female,Left,True,0,1,Novel,-0.004396459,0.5086761,2022-07-28 17:21:43.667,2022-07-28 17:21:57.546,13.87037,True,3,2,4,3,6.049696,False
1,25,Female,Left,True,0,2,Novel,-0.002732392,0.4008883,2022-07-28 17:22:05.011,2022-07-28 17:22:11.830,6.815386,True,3,3,1,1,2.191938,True
1,25,Female,Left,True,0,3,Congruent,-0.002223109,0.4377703,2022-07-28 17:22:15.479,2022-07-28 17:22:21.403,5.920831,True,1,1,4,4,2.100336,True
1,25,Female,Left,True,0,4,Incongruent,0.0002682297,0.3949063,2022-07-28 17:22:24.904,2022-07-28 17:22:28.574,3.66535,True,2,2,1,1,2.280007,True
1,25,Female,Left,True,0,5,Congruent,0.004379196,0.4933164,2022-07-28 17:22:32.355,2022-07-28 17:22:35.421,3.057988,True,1,1,3,3,0.9412441,True
1,25,Female,Left,True,0,6,Incongruent,0.001820115,0.3668333,2022-07-28 17:22:37.763,2022-07-28 17:22:40.046,2.280701,True,2,2,4,4,2.727025,True
1,25,Female,Left,True,0,7,Random,-0.0006875186,0.3277209,2022-07-28 17:22:44.119,2022-07-28 17:22:48.524,4.401116,True,4,4,1,1,1.475542,True
1,25,Female,Left,True,0,8,Novel,-0.00361452,0.3459143,2022-07-28 17:22:51.377,2022-07-28 17:22:54.356,2.973472,True,3,3,2,2,1.653014,True
1,25,Female,Left,True,0,9,Random,-0.00459107,0.4161377,2022-07-28 17:22:57.431,2022-07-28 17:23:03.623,6.189345,True,4,4,1,1,1.546139,True
1,25,Female,Left,True,0,10,Novel,-0.002919171,0.4123612,2022-07-28 17:23:06.590,2022-07-28 17:23:09.522,2.925753,True,3,3,2,2,1.227534,True
1,25,Female,Left,True,0,11,Congruent,-0.00400645,0.4406413,2022-07-28 17:23:12.210,2022-07-28 17:23:14.450,2.234298,True,1,1,2,2,0.9371447,True
1,25,Female,Left,True,0,12,Incongruent,-0.0003754324,0.5876513,2022-07-28 17:23:16.978,2022-07-28 17:23:19.083,2.100768,True,2,2,3,3,1.51933,True
1,25,Female,Left,True,0,13,Incongruent,0.00105308,0.4814613,2022-07-28 17:23:22.118,2022-07-28 17:23:24.783,2.655007,True,2,2,3,3,1.427397,True
1,25,Female,Left,True,0,14,Congruent,-0.003871488,0.5915332,2022-07-28 17:23:27.826,2022-07-28 17:23:31.605,3.77927,True,1,1,3,3,1.25038,True
1,25,Female,Left,True,0,15,Incongruent,-0.0013148,0.4354356,2022-07-28 17:23:34.304,2022-07-28 17:23:38.865,4.558791,True,2,2,1,1,1.655865,True
1,25,Female,Left,True,0,16,Random,-0.0004547136,0.3938506,2022-07-28 17:23:41.931,2022-07-28 17:23:45.019,3.083749,True,4,4,1,1,1.18668,True
1,25,Female,Left,True,0,17,Random,-0.003415837,0.489282,2022-07-28 17:23:47.706,2022-07-28 17:23:50.215,2.501586,True,4,4,2,2,1.051024,True
1,25,Female,Left,True,0,18,Random,-0.00219585,0.507165,2022-07-28 17:23:52.780,2022-07-28 17:23:55.264,2.483043,True,4,4,3,3,1.29646,True
1,25,Female,Left,True,0,19,Novel,-0.0001589148,0.4662641,2022-07-28 17:23:58.040,2022-07-28 17:24:00.951,2.904822,True,3,3,2,2,1.362689,True
1,25,Female,Left,True,0,20,Congruent,-0.003949033,0.3075026,2022-07-28 17:24:03.625,2022-07-28 17:24:06.087,2.458582,True,1,1,4,4,1.407988,True
1,25,Female,Left,False,1,1,Random,-0.004569352,0.5147368,2022-07-28 17:31:12.310,2022-07-28 17:31:16.515,4.200055,True,4,4,3,3,1.47649,True
1,25,Female,Left,False,1,2,Novel,-0.003573575,0.3940602,2022-07-28 17:31:19.425,2022-07-28 17:31:23.857,4.421978,True,3,3,4,4,2.545725,True
1,25,Female,Left,False,1,3,Incongruent,-0.001855326,0.3989965,2022-07-28 17:31:27.825,2022-07-28 17:31:31.180,3.351158,True,2,2,1,1,1.814102,True
1,25,Female,Left,False,1,4,Congruent,-0.003124143,0.5769162,2022-07-28 17:31:34.572,2022-07-28 17:31:36.679,2.100845,True,1,1,4,4,1.563285,True
1,25,Female,Left,False,1,5,Random,0.001304523,0.3595626,2022-07-28 17:31:39.622,2022-07-28 17:31:42.620,2.994917,True,4,4,1,1,1.362962,True
1,25,Female,Left,False,1,6,Random,0.003661994,0.5692327,2022-07-28 17:31:45.573,2022-07-28 17:31:48.259,2.682318,True,4,4,1,1,1.119336,True
1,25,Female,Left,False,1,7,Incongruent,-0.003025246,0.452718,2022-07-28 17:31:50.835,2022-07-28 17:31:53.344,2.50191,True,2,2,3,3,1.272503,True
1,25,Female,Left,False,1,8,Random,-0.004851545,0.4001479,2022-07-28 17:31:56.028,2022-07-28 17:32:00.706,4.669656,True,4,3,1,2,2.457192,False
1,25,Female,Left,False,1,9,Congruent,-0.004836501,0.5484194,2022-07-28 17:32:04.731,2022-07-28 17:32:07.286,2.548237,True,1,1,3,3,0.8011084,True
1,25,Female,Left,False,1,10,Novel,0.001688535,0.3458903,2022-07-28 17:32:09.454,2022-07-28 17:32:11.987,2.524497,True,3,3,2,2,1.785234,True
1,25,Female,Left,False,1,11,Congruent,-0.003117352,0.3910466,2022-07-28 17:32:15.185,2022-07-28 17:32:17.403,2.210221,True,1,1,4,4,0.9829721,True
1,25,Female,Left,False,1,12,Random,-0.002227535,0.311166,2022-07-28 17:32:19.709,2022-07-28 17:32:23.286,3.574371,True,4,4,3,3,1.499206,True
1,25,Female,Left,False,1,13,Novel,-0.0009728889,0.5622004,2022-07-28 17:32:26.356,2022-07-28 17:32:29.063,2.706966,True,3,3,1,1,1.286822,True
1,25,Female,Left,False,1,14,Incongruent,0.000508483,0.5042903,2022-07-28 17:32:31.874,2022-07-28 17:32:33.955,2.079429,True,2,2,4,4,1.564572,True
1,25,Female,Left,False,1,15,Novel,0.004550592,0.4063211,2022-07-28 17:32:36.932,2022-07-28 17:32:39.394,2.459193,True,3,3,4,4,1.165457,True
1,25,Female,Left,False,1,16,Novel,0.0004838877,0.5565165,2022-07-28 17:32:42.150,2022-07-28 17:32:44.433,2.278875,True,3,3,2,2,1.053818,True
1,25,Female,Left,False,1,17,Random,-0.002728024,0.330947,2022-07-28 17:32:46.853,2022-07-28 17:32:49.361,2.502833,True,4,4,3,3,0.9596593,True
1,25,Female,Left,False,1,18,Congruent,-0.003195524,0.4094028,2022-07-28 17:32:51.733,2022-07-28 17:32:54.264,2.524246,True,1,1,2,2,0.957559,True
1,25,Female,Left,False,1,19,Novel,-0.004626886,0.5146213,2022-07-28 17:32:56.749,2022-07-28 17:32:58.721,1.967187,True,3,3,1,1,0.8375566,True
1,25,Female,Left,False,1,20,Congruent,-0.001634772,0.3435865,2022-07-28 17:33:00.925,2022-07-28 17:33:02.880,1.943191,True,1,1,4,4,1.113199,True
1,25,Female,Left,False,1,21,Random,-0.001258604,0.3934518,2022-07-28 17:33:05.415,2022-07-28 17:33:08.347,2.925379,True,4,4,1,1,1.117574,True
1,25,Female,Left,False,1,22,Incongruent,-0.0001048688,0.3930391,2022-07-28 17:33:10.877,2022-07-28 17:33:15.931,5.05007,True,2,2,4,4,1.430333,True
1,25,Female,Left,False,1,23,Random,-0.003205744,0.4725881,2022-07-28 17:33:18.845,2022-07-28 17:33:23.650,4.804948,True,4,4,1,1,1.0522,True
1,25,Female,Left,False,1,24,Novel,0.00184127,0.5828253,2022-07-28 17:33:26.291,2022-07-28 17:33:29.068,2.771791,True,3,3,1,1,1.237762,True
1,25,Female,Left,False,1,25,Random,-0.003907526,0.4079356,2022-07-28 17:33:31.733,2022-07-28 17:33:34.373,2.635803,True,4,4,2,2,1.318237,True
1,25,Female,Left,False,1,26,Incongruent,0.0006894143,0.4807841,2022-07-28 17:33:37.183,2022-07-28 17:33:40.896,3.711068,True,2,2,4,4,1.857564,True
1,25,Female,Left,False,1,27,Incongruent,-0.00459645,0.4554279,2022-07-28 17:33:44.230,2022-07-28 17:33:46.404,2.164445,True,2,2,3,3,1.653693,True
1,25,Female,Left,False,1,28,Random,0.001660133,0.49652,2022-07-28 17:33:49.571,2022-07-28 17:33:52.235,2.659736,True,4,4,1,1,1.626439,True
1,25,Female,Left,False,1,29,Random,0.0006196564,0.4464974,2022-07-28 17:33:55.322,2022-07-28 17:33:57.697,2.369309,True,4,4,2,2,0.8719937,True
1,25,Female,Left,False,1,30,Congruent,-0.0001462144,0.4551036,2022-07-28 17:34:00.058,2022-07-28 17:34:02.743,2.679303,True,1,1,3,3,0.7609575,True
1,25,Female,Left,False,1,31,Congruent,-0.003328325,0.3103294,2022-07-28 17:34:04.828,2022-07-28 17:34:07.359,2.523915,True,1,1,2,2,0.8710941,True
1,25,Female,Left,False,1,32,Congruent,-2.888031E-06,0.4360631,2022-07-28 17:34:09.687,2022-07-28 17:34:11.656,1.965106,True,1,1,2,2,0.9395739,True
1,25,Female,Left,False,1,33,Incongruent,-0.001804976,0.593606,2022-07-28 17:34:14.210,2022-07-28 17:34:17.052,2.840185,True,2,2,1,1,1.712869,True
1,25,Female,Left,False,1,34,Congruent,0.0022461,0.5921612,2022-07-28 17:34:20.407,2022-07-28 17:34:24.493,4.090282,True,1,1,3,3,0.7602928,True
1,25,Female,Left,False,1,35,Novel,0.001337507,0.3064142,2022-07-28 17:34:26.575,2022-07-28 17:34:30.156,3.577402,True,3,3,1,1,1.141995,True
1,25,Female,Left,False,1,36,Congruent,0.001724309,0.4210425,2022-07-28 17:34:32.731,2022-07-28 17:34:34.812,2.081125,True,1,1,4,4,1.901835,True
1,25,Female,Left,False,1,37,Congruent,0.001390216,0.5190604,2022-07-28 17:34:38.270,2022-07-28 17:34:40.532,2.254797,True,1,1,4,4,1.540598,True
1,25,Female,Left,False,1,38,Random,0.0006427984,0.3984731,2022-07-28 17:34:43.487,2022-07-28 17:34:48.563,5.073199,True,4,4,2,2,0.9623538,True
1,25,Female,Left,False,1,39,Congruent,0.002752293,0.4401201,2022-07-28 17:34:50.971,2022-07-28 17:34:53.725,2.747837,True,1,1,4,4,1.250586,True
1,25,Female,Left,False,1,40,Incongruent,-0.001335021,0.4139972,2022-07-28 17:34:56.412,2022-07-28 17:34:59.162,2.750579,True,2,2,3,3,1.680833,True
1,25,Female,Left,False,1,41,Novel,-0.001045616,0.5980943,2022-07-28 17:35:02.464,2022-07-28 17:35:04.926,2.460102,True,3,3,1,1,0.873081,True
1,25,Female,Left,False,1,42,Incongruent,-0.0009492203,0.5086073,2022-07-28 17:35:07.323,2022-07-28 17:35:09.542,2.211389,True,2,2,1,1,1.339826,True
1,25,Female,Left,False,1,43,Incongruent,-0.002146977,0.5038215,2022-07-28 17:35:12.394,2022-07-28 17:35:15.505,3.103281,True,2,2,3,3,1.410245,True
1,25,Female,Left,False,1,44,Novel,-0.001329563,0.5163857,2022-07-28 17:35:18.462,2022-07-28 17:35:20.676,2.214649,True,3,3,4,4,1.321049,True
1,25,Female,Left,False,1,45,Incongruent,0.003178519,0.4016979,2022-07-28 17:35:23.407,2022-07-28 17:35:25.491,2.076391,True,2,2,3,3,1.18476,True
1,25,Female,Left,False,1,46,Novel,0.004886606,0.5403242,2022-07-28 17:35:28.234,2022-07-28 17:35:31.321,3.086194,True,3,3,2,2,1.320091,True
1,25,Female,Left,False,1,47,Congruent,0.001341082,0.3356224,2022-07-28 17:35:34.019,2022-07-28 17:35:36.482,2.459182,True,1,1,3,3,0.7593322,True
1,25,Female,Left,False,1,48,Incongruent,0.00239741,0.4534579,2022-07-28 17:35:38.712,2022-07-28 17:35:42.077,3.352307,True,2,2,1,1,1.007255,True
1,25,Female,Left,False,1,49,Incongruent,0.001781962,0.534834,2022-07-28 17:35:44.644,2022-07-28 17:35:47.483,2.841591,True,2,2,3,3,1.432185,True
1,25,Female,Left,False,1,50,Novel,-0.002949676,0.4324733,2022-07-28 17:35:50.349,2022-07-28 17:35:52.765,2.412984,True,3,3,4,4,1.317659,True
1,25,Female,Left,False,1,51,Random,-0.0001061265,0.3373722,2022-07-28 17:35:55.433,2022-07-28 17:35:58.765,3.331867,True,4,4,1,1,1.584849,True
1,25,Female,Left,False,1,52,Novel,0.00495124,0.3527841,2022-07-28 17:36:01.709,2022-07-28 17:36:04.821,3.105801,True,3,3,1,1,0.9174756,True
1,25,Female,Left,False,2,1,Incongruent,-0.000830329,0.4250053,2022-07-28 17:43:22.425,2022-07-28 17:43:25.447,3.015579,True,2,2,4,4,2.024117,True
1,25,Female,Left,False,2,2,Novel,-0.002707465,0.3427218,2022-07-28 17:43:28.849,2022-07-28 17:43:31.867,3.017233,True,3,3,4,4,1.500085,True
1,25,Female,Left,False,2,3,Congruent,-0.001979167,0.4660515,2022-07-28 17:43:34.847,2022-07-28 17:43:36.907,2.056745,True,1,1,2,2,0.9340111,True
1,25,Female,Left,False,2,4,Incongruent,0.0023862,0.3830196,2022-07-28 17:43:39.246,2022-07-28 17:43:41.889,2.636277,True,2,2,1,1,1.22936,True
1,25,Female,Left,False,2,5,Incongruent,0.003765746,0.5850896,2022-07-28 17:43:44.744,2022-07-28 17:43:47.296,2.547944,True,2,2,3,3,1.137605,True
1,25,Female,Left,False,2,6,Random,-0.002633702,0.439985,2022-07-28 17:43:49.883,2022-07-28 17:43:52.323,2.438235,True,4,4,2,2,0.4887503,True
1,25,Female,Left,False,2,7,Congruent,0.001959118,0.3400877,2022-07-28 17:43:54.170,2022-07-28 17:43:57.301,3.128895,True,1,1,4,4,0.8082239,True
1,25,Female,Left,False,2,8,Novel,-0.004345386,0.402225,2022-07-28 17:43:59.519,2022-07-28 17:44:02.229,2.702642,True,3,3,1,1,1.272588,True
1,25,Female,Left,False,2,9,Incongruent,-0.001225626,0.3499909,2022-07-28 17:44:04.860,2022-07-28 17:44:06.740,1.877861,True,2,2,3,3,1.098076,True
1,25,Female,Left,False,2,10,Novel,0.0007313592,0.5690989,2022-07-28 17:44:09.417,2022-07-28 17:44:11.388,1.967632,True,3,3,2,2,2.435066,True
1,25,Female,Left,False,2,11,Congruent,0.002823524,0.3443071,2022-07-28 17:44:15.192,2022-07-28 17:44:17.249,2.055852,True,1,1,3,3,0.5823458,True
1,25,Female,Left,False,2,12,Random,-0.0006119185,0.554513,2022-07-28 17:44:19.403,2022-07-28 17:44:22.356,2.948408,True,4,4,1,1,1.733088,True
1,25,Female,Left,False,2,13,Random,0.001686343,0.4668557,2022-07-28 17:44:25.579,2022-07-28 17:44:29.363,3.776201,True,4,4,3,3,0.9808788,True
1,25,Female,Left,False,2,14,Incongruent,-0.003474647,0.3123007,2022-07-28 17:44:31.667,2022-07-28 17:44:34.040,2.369992,True,2,2,1,1,1.297599,True
1,25,Female,Left,False,2,15,Random,0.002596042,0.5371497,2022-07-28 17:44:36.882,2022-07-28 17:44:39.995,3.103718,True,4,4,2,2,1.001109,True
1,25,Female,Left,False,2,16,Incongruent,-0.001347709,0.3980613,2022-07-28 17:44:42.413,2022-07-28 17:44:44.854,2.434979,True,2,2,3,3,1.073521,True
1,25,Female,Left,False,2,17,Congruent,0.003778304,0.5071163,2022-07-28 17:44:47.461,2022-07-28 17:44:49.301,1.831868,True,1,1,2,2,0.9930227,True
1,25,Female,Left,False,2,18,Novel,0.004067264,0.3861099,2022-07-28 17:44:51.682,2022-07-28 17:44:53.967,2.27974,True,3,3,4,4,1.275446,True
1,25,Female,Left,False,2,19,Congruent,0.001482159,0.5292465,2022-07-28 17:44:56.788,2022-07-28 17:44:59.543,2.747945,True,1,1,3,3,1.204359,True
1,25,Female,Left,False,2,20,Random,0.001812019,0.3006907,2022-07-28 17:45:02.082,2022-07-28 17:45:04.233,2.145814,True,4,4,1,1,1.439822,True
1,25,Female,Left,False,2,21,Novel,-0.002352859,0.3990779,2022-07-28 17:45:07.087,2022-07-28 17:45:09.682,2.591143,True,3,3,1,1,1.296811,True
1,25,Female,Left,False,2,22,Congruent,0.001856643,0.4591068,2022-07-28 17:45:12.448,2022-07-28 17:45:15.246,2.795721,True,1,1,2,2,1.050777,True
1,25,Female,Left,False,2,23,Incongruent,-0.001636507,0.4999284,2022-07-28 17:45:17.822,2022-07-28 17:45:20.377,2.548862,True,2,2,4,4,1.760876,True
1,25,Female,Left,False,2,24,Novel,-0.002335731,0.4234718,2022-07-28 17:45:23.572,2022-07-28 17:45:25.747,2.166391,True,3,3,2,2,0.9381899,True
1,25,Female,Left,False,2,25,Incongruent,0.0002265959,0.457985,2022-07-28 17:45:28.158,2022-07-28 17:45:30.235,2.07316,True,2,2,1,1,1.25263,True
1,25,Female,Left,False,2,26,Congruent,0.002599001,0.3124997,2022-07-28 17:45:32.812,2022-07-28 17:45:35.720,2.902294,True,1,1,4,4,1.073496,True
1,25,Female,Left,False,2,27,Random,0.002679317,0.4066477,2022-07-28 17:45:38.240,2022-07-28 17:45:40.166,1.922674,True,4,4,2,2,1.104407,True
1,25,Female,Left,False,2,28,Novel,0.003840328,0.4160472,2022-07-28 17:45:42.707,2022-07-28 17:45:45.149,2.435059,True,3,3,2,2,1.078759,True
1,25,Female,Left,False,2,29,Random,0.001509559,0.4786272,2022-07-28 17:45:47.744,2022-07-28 17:45:49.671,1.922709,True,4,4,2,2,1.007497,True
1,25,Female,Left,False,2,30,Incongruent,0.002356511,0.4967411,2022-07-28 17:45:52.189,2022-07-28 17:45:54.608,2.413852,True,2,2,4,4,1.09628,True
1,25,Female,Left,False,2,31,Novel,0.001887773,0.5077978,2022-07-28 17:45:57.216,2022-07-28 17:45:59.505,2.281233,True,3,3,2,2,0.8454888,True
1,25,Female,Left,False,2,32,Congruent,-0.003465605,0.552996,2022-07-28 17:46:01.944,2022-07-28 17:46:04.497,2.547672,True,1,1,4,4,0.9125223,True
1,25,Female,Left,False,2,33,Random,0.00122431,0.5096207,2022-07-28 17:46:06.938,2022-07-28 17:46:09.310,2.368491,True,4,4,2,2,0.9615338,True
1,25,Female,Left,False,2,34,Congruent,0.0003098338,0.5845126,2022-07-28 17:46:11.860,2022-07-28 17:46:13.875,2.011982,True,1,1,2,2,0.9196293,True
1,25,Female,Left,False,2,35,Incongruent,-0.002324044,0.5919798,2022-07-28 17:46:16.395,2022-07-28 17:46:18.366,1.96576,True,2,2,4,4,1.342661,True
1,25,Female,Left,False,2,36,Novel,0.004937124,0.5109934,2022-07-28 17:46:21.233,2022-07-28 17:46:24.099,2.860444,True,3,3,2,2,0.8443763,True
1,25,Female,Left,False,2,37,Congruent,-0.004171362,0.4112577,2022-07-28 17:46:26.358,2022-07-28 17:46:29.246,2.882807,True,1,1,2,2,0.8717636,True
1,25,Female,Left,False,2,38,Random,0.0003792052,0.5136882,2022-07-28 17:46:31.675,2022-07-28 17:46:33.912,2.234324,True,4,4,3,3,0.9202451,True
1,25,Female,Left,False,2,39,Novel,0.0007189256,0.478449,2022-07-28 17:46:36.333,2022-07-28 17:46:38.998,2.657167,True,3,3,1,1,1.274601,True
1,25,Female,Left,False,2,40,Novel,-0.00146068,0.5926524,2022-07-28 17:46:41.885,2022-07-28 17:46:44.035,2.146131,True,3,3,1,1,0.7588578,True
1,25,Female,Left,False,2,41,Random,-0.001619516,0.3302729,2022-07-28 17:46:46.142,2022-07-28 17:46:48.114,1.96641,True,4,4,1,1,1.593787,True
1,25,Female,Left,False,2,42,Novel,-0.003901167,0.3346559,2022-07-28 17:46:51.065,2022-07-28 17:46:53.564,2.502721,True,3,3,1,1,0.9822928,True
1,25,Female,Left,False,2,43,Incongruent,-0.001531311,0.4545819,2022-07-28 17:46:56.018,2022-07-28 17:46:58.275,2.258105,True,2,2,3,3,1.096579,True
1,25,Female,Left,False,2,44,Random,-0.003121655,0.3379362,2022-07-28 17:47:00.729,2022-07-28 17:47:03.636,2.904253,True,4,4,2,2,0.6503403,True
1,25,Female,Left,False,2,45,Incongruent,-0.002941106,0.5802326,2022-07-28 17:47:05.880,2022-07-28 17:47:07.805,1.915557,True,2,2,4,4,1.606203,True
1,25,Female,Left,False,2,46,Congruent,0.00365452,0.5925748,2022-07-28 17:47:11.028,2022-07-28 17:47:13.466,2.437655,True,1,1,4,4,1.02997,True
1,25,Female,Left,False,2,47,Random,-0.002096005,0.5660253,2022-07-28 17:47:16.065,2022-07-28 17:47:19.063,2.996374,True,4,4,2,2,1.07586,True
1,25,Female,Left,False,2,48,Random,0.001103736,0.4023952,2022-07-28 17:47:21.549,2022-07-28 17:47:24.570,3.013706,True,4,4,2,2,1.050011,True
1,25,Female,Left,False,2,49,Congruent,-0.003129128,0.5261706,2022-07-28 17:47:27.167,2022-07-28 17:47:29.520,2.345885,True,1,1,3,3,1.140193,True
1,25,Female,Left,False,2,50,Incongruent,0.001095427,0.5602864,2022-07-28 17:47:32.237,2022-07-28 17:47:34.723,2.483816,True,2,2,4,4,1.45196,True
1,25,Female,Left,False,2,51,Novel,-0.002357972,0.3854298,2022-07-28 17:47:37.567,2022-07-28 17:47:42.844,5.272349,True,3,3,1,1,0.984933,True
1,25,Female,Left,False,2,52,Congruent,0.003314937,0.5634323,2022-07-28 17:47:45.397,2022-07-28 17:47:47.657,2.259675,True,1,1,3,3,0.6949853,True
1,25,Female,Left,False,3,1,Incongruent,0.003703889,0.3200713,2022-07-28 17:54:47.246,2022-07-28 17:54:50.961,3.706106,True,2,3,4,2,1.006257,False
1,25,Female,Left,False,3,2,Incongruent,0.003802048,0.3051212,2022-07-28 17:54:53.289,2022-07-28 17:54:56.376,3.0845,True,2,2,4,4,1.944447,True
1,25,Female,Left,False,3,3,Random,-0.004266084,0.4660296,2022-07-28 17:54:59.812,2022-07-28 17:55:02.364,2.549132,True,4,4,2,2,1.34444,True
1,25,Female,Left,False,3,4,Random,0.002460034,0.3058858,2022-07-28 17:55:05.051,2022-07-28 17:55:07.557,2.502421,True,4,4,1,1,0.7851223,True
1,25,Female,Left,False,3,5,Congruent,-0.000991791,0.4541714,2022-07-28 17:55:09.833,2022-07-28 17:55:11.868,2.0339,True,1,1,4,4,1.587735,True
1,25,Female,Left,False,3,6,Random,-4.956778E-05,0.4392383,2022-07-28 17:55:14.903,2022-07-28 17:55:18.259,3.349598,True,4,4,3,3,1.18501,True
1,25,Female,Left,False,3,7,Incongruent,-0.003578013,0.3910812,2022-07-28 17:55:20.856,2022-07-28 17:55:22.762,1.898504,True,2,2,1,1,1.517556,True
1,25,Female,Left,False,3,8,Random,0.004138705,0.3708789,2022-07-28 17:55:25.671,2022-07-28 17:55:27.957,2.280136,True,4,4,1,1,0.9400904,True
1,25,Female,Left,False,3,9,Novel,0.001972877,0.4233742,2022-07-28 17:55:30.363,2022-07-28 17:55:32.736,2.367483,True,3,3,4,4,3.253033,True
1,25,Female,Left,False,3,10,Congruent,-0.001772272,0.5174757,2022-07-28 17:55:37.511,2022-07-28 17:55:39.817,2.304529,True,1,1,3,3,0.7168938,True
1,25,Female,Left,False,3,11,Random,0.003313497,0.4008856,2022-07-28 17:55:41.944,2022-07-28 17:55:44.119,2.167147,True,4,4,1,1,1.674379,True
1,25,Female,Left,False,3,12,Incongruent,0.001341142,0.5786155,2022-07-28 17:55:47.386,2022-07-28 17:55:49.491,2.10206,True,2,2,4,4,1.496271,True
1,25,Female,Left,False,3,13,Congruent,0.004922621,0.4126641,2022-07-28 17:55:52.423,2022-07-28 17:55:54.663,2.233309,True,1,1,4,4,3.212869,True
1,25,Female,Left,False,3,14,Novel,-0.0004530279,0.4783529,2022-07-28 17:55:59.380,2022-07-28 17:55:59.474,0.0894272,True,3,2,1,3,1.90338,False
1,25,Female,Left,False,3,15,Congruent,-0.002260804,0.3199827,2022-07-28 17:56:02.698,2022-07-28 17:56:05.250,2.546992,True,1,1,3,3,0.7815306,True
1,25,Female,Left,False,3,16,Novel,-0.004811703,0.4083346,2022-07-28 17:56:07.459,2022-07-28 17:56:09.922,2.459344,True,3,3,2,2,1.319486,True
1,25,Female,Left,False,3,17,Incongruent,-0.0005705222,0.5456923,2022-07-28 17:56:12.796,2022-07-28 17:56:15.013,2.210038,True,2,2,1,1,1.00429,True
1,25,Female,Left,False,3,18,Incongruent,0.000566972,0.3518053,2022-07-28 17:56:17.389,2022-07-28 17:56:19.407,2.011586,True,2,2,3,3,1.204287,True
1,25,Female,Left,False,3,19,Congruent,0.001415875,0.4289992,2022-07-28 17:56:22.078,2022-07-28 17:56:24.127,2.033659,True,1,1,3,3,0.8044188,True
1,25,Female,Left,False,3,20,Incongruent,-0.001689915,0.3952526,2022-07-28 17:56:26.345,2022-07-28 17:56:28.047,1.698839,True,2,2,4,4,2.707547,True
1,25,Female,Left,False,3,21,Congruent,0.0004520803,0.3022583,2022-07-28 17:56:32.075,2022-07-28 17:56:33.911,1.834487,True,1,1,3,3,0.5119032,True
1,25,Female,Left,False,3,22,Random,0.0007165805,0.4132246,2022-07-28 17:56:35.864,2022-07-28 17:56:37.988,2.12611,True,4,4,3,3,0.9387847,True
1,25,Female,Left,False,3,23,Novel,0.002260747,0.4484738,2022-07-28 17:56:40.387,2022-07-28 17:56:42.334,1.946864,True,3,3,4,4,1.139571,True
1,25,Female,Left,False,3,24,Incongruent,0.001791782,0.5150224,2022-07-28 17:56:45.000,2022-07-28 17:56:47.061,2.056117,True,2,2,4,4,1.474312,True
1,25,Female,Left,False,3,25,Novel,-0.0001007253,0.5789221,2022-07-28 17:56:50.137,2022-07-28 17:56:52.331,2.190944,True,3,3,4,4,1.07182,True
1,25,Female,Left,False,3,26,Random,0.00441143,0.5147659,2022-07-28 17:56:54.939,2022-07-28 17:56:56.911,1.960629,True,4,4,3,3,1.028383,True
1,25,Female,Left,False,3,27,Incongruent,0.002044498,0.5047038,2022-07-28 17:56:59.456,2022-07-28 17:57:01.558,2.096807,True,2,2,1,1,1.83353,True
1,25,Female,Left,False,3,28,Random,0.003793292,0.3808755,2022-07-28 17:57:04.804,2022-07-28 17:57:06.956,2.150083,True,4,4,1,1,1.361756,True
1,25,Female,Left,False,3,29,Novel,0.002696504,0.3376792,2022-07-28 17:57:09.662,2022-07-28 17:57:11.970,2.299346,True,3,3,4,4,0.9620082,True
1,25,Female,Left,False,3,30,Incongruent,-0.004814201,0.3574302,2022-07-28 17:57:14.324,2022-07-28 17:57:16.201,1.868927,True,2,2,4,4,2.415224,True
1,25,Female,Left,False,3,31,Novel,-0.002650032,0.3040524,2022-07-28 17:57:19.940,2022-07-28 17:57:21.955,2.007651,True,3,3,2,2,0.983288,True
1,25,Female,Left,False,3,32,Random,0.000264823,0.5074879,2022-07-28 17:57:24.474,2022-07-28 17:57:26.867,2.391657,True,4,4,3,3,1.031393,True
1,25,Female,Left,False,3,33,Random,0.00498925,0.539432,2022-07-28 17:57:29.444,2022-07-28 17:57:33.429,3.977417,True,4,4,3,3,0.7363572,True
1,25,Female,Left,False,3,34,Novel,-0.004976472,0.3695526,2022-07-28 17:57:35.553,2022-07-28 17:57:38.306,2.743941,True,3,3,1,1,1.789454,True
1,25,Female,Left,False,3,35,Congruent,0.004583369,0.4860224,2022-07-28 17:57:41.584,2022-07-28 17:57:43.779,2.19027,True,1,1,3,3,0.7374555,True
1,25,Female,Left,False,3,36,Congruent,0.004505898,0.5040278,2022-07-28 17:57:46.042,2022-07-28 17:57:48.280,2.235946,True,1,1,2,2,0.8518888,True
1,25,Female,Left,False,3,37,Incongruent,-0.004991002,0.4739524,2022-07-28 17:57:50.613,2022-07-28 17:57:52.560,1.946613,True,2,2,4,4,1.425443,True
1,25,Female,Left,False,3,38,Novel,0.003036555,0.4789391,2022-07-28 17:57:55.491,2022-07-28 17:57:58.452,2.956351,True,3,3,2,2,0.9107698,True
1,25,Female,Left,False,3,39,Random,-0.004736268,0.3343472,2022-07-28 17:58:00.709,2022-07-28 17:58:03.664,2.949648,True,4,4,1,1,1.226908,True
1,25,Female,Left,False,3,40,Novel,-0.0032108,0.337106,2022-07-28 17:58:06.260,2022-07-28 17:58:09.259,2.99366,True,3,3,1,1,1.274319,True
1,25,Female,Left,False,3,41,Novel,-0.004650576,0.595171,2022-07-28 17:58:12.134,2022-07-28 17:58:15.021,2.880334,True,3,3,4,4,1.364502,True
1,25,Female,Left,False,3,42,Random,-0.002649864,0.4181154,2022-07-28 17:58:17.810,2022-07-28 17:58:20.320,2.503696,True,4,4,2,2,0.9811583,True
1,25,Female,Left,False,3,43,Congruent,0.0003494564,0.3723052,2022-07-28 17:58:22.690,2022-07-28 17:58:24.974,2.281733,True,1,1,3,3,0.55723,True
1,25,Female,Left,False,3,44,Random,0.002473487,0.315625,2022-07-28 17:58:26.868,2022-07-28 17:58:29.554,2.682087,True,4,4,2,2,1.25178,True
1,25,Female,Left,False,3,45,Congruent,-0.001122583,0.5270882,2022-07-28 17:58:32.351,2022-07-28 17:58:34.659,2.300736,True,1,1,4,4,0.8941135,True
1,25,Female,Left,False,3,46,Incongruent,-0.004333339,0.5617142,2022-07-28 17:58:37.123,2022-07-28 17:58:39.739,2.615917,True,2,2,1,1,1.276622,True
1,25,Female,Left,False,3,47,Congruent,0.002538696,0.4948597,2022-07-28 17:58:42.551,2022-07-28 17:58:44.810,2.256859,True,1,1,3,3,0.6046144,True
1,25,Female,Left,False,3,48,Novel,0.003501604,0.3404682,2022-07-28 17:58:46.762,2022-07-28 17:58:49.626,2.861975,True,3,3,4,4,0.8524167,True
1,25,Female,Left,False,3,49,Congruent,0.00289945,0.4586801,2022-07-28 17:58:51.978,2022-07-28 17:58:54.039,2.055489,True,1,1,4,4,1.115122,True
1,25,Female,Left,False,3,50,Incongruent,0.004952508,0.5806402,2022-07-28 17:58:56.746,2022-07-28 17:58:59.054,2.300687,True,2,2,4,4,1.944824,True
1,25,Female,Left,False,3,51,Novel,-0.004162136,0.5939174,2022-07-28 17:59:02.612,2022-07-28 17:59:04.852,2.235032,True,3,3,4,4,0.758667,True
1,25,Female,Left,False,3,52,Congruent,0.002882329,0.4722694,2022-07-28 17:59:07.090,2022-07-28 17:59:09.551,2.458588,True,1,1,3,3,0.6496029,True
