ID,age,sex,eye_d,training,block,trial,condition,vertical_pos,preonset,onset_timestamp,detection_timestamp,detection,detected,obj_type,indicated_obj,obj_location,indicated_location,decision_time,accuracy
23,20,Female,Right,True,0,1,Novel,-0.003706168,0.5118939,2022-08-08 11:15:32.373,2022-08-08 11:15:46.382,14,False,2,2,4,4,2.420327,True
23,20,Female,Right,True,0,2,Novel,0.001783229,0.3331112,2022-08-08 11:15:50.147,2022-08-08 11:15:55.667,5.519039,True,2,2,4,4,2.282397,True
23,20,Female,Right,True,0,3,Congruent,0.003107549,0.3822324,2022-08-08 11:15:59.339,2022-08-08 11:16:06.761,7.416566,True,3,3,4,4,1.642565,True
23,20,Female,Right,True,0,4,Congruent,0.002135115,0.4559436,2022-08-08 11:16:09.881,2022-08-08 11:16:14.065,4.176158,True,3,3,1,1,1.498765,True
23,20,Female,Right,True,0,5,Incongruent,-0.00339505,0.4640899,2022-08-08 11:16:17.065,2022-08-08 11:16:19.883,2.814805,True,4,4,3,3,0.9401739,True
23,20,Female,Right,True,0,6,Random,-0.0006063036,0.5456358,2022-08-08 11:16:22.383,2022-08-08 11:16:25.557,3.173794,True,1,1,4,4,0.7370934,True
23,20,Female,Right,True,0,7,Novel,-0.003517125,0.4392035,2022-08-08 11:16:27.731,2022-08-08 11:16:30.082,2.343315,True,2,2,1,1,2.476688,True
23,20,Female,Right,True,0,8,Novel,0.004712922,0.4945585,2022-08-08 11:16:34.064,2022-08-08 11:16:36.659,2.591954,True,2,2,3,3,0.7369508,True
23,20,Female,Right,True,0,9,Congruent,-0.00306129,0.5935769,2022-08-08 11:16:39.014,2022-08-08 11:16:42.076,3.061783,True,3,3,4,4,1.433242,True
23,20,Female,Right,True,0,10,Random,0.0004095645,0.491282,2022-08-08 11:16:45.033,2022-08-08 11:16:47.093,2.052943,True,1,1,4,4,0.850756,True
23,20,Female,Right,True,0,11,Incongruent,-0.001108641,0.5027458,2022-08-08 11:16:49.457,2022-08-08 11:16:51.855,2.391106,True,4,4,2,2,1.150084,True
23,20,Female,Right,True,0,12,Random,0.0008530454,0.3546264,2022-08-08 11:16:54.383,2022-08-08 11:16:57.005,2.611798,True,1,1,3,3,0.8984541,True
23,20,Female,Right,True,0,13,Incongruent,-0.000893964,0.4034372,2022-08-08 11:16:59.320,2022-08-08 11:17:01.824,2.502598,True,4,2,2,3,0.6692958,False
23,20,Female,Right,True,0,14,Congruent,0.004942272,0.5694969,2022-08-08 11:17:04.079,2022-08-08 11:17:07.054,2.972858,True,3,3,4,4,0.8485764,True
23,20,Female,Right,True,0,15,Random,0.003485528,0.4048058,2022-08-08 11:17:09.316,2022-08-08 11:17:11.196,1.875883,True,1,1,4,4,0.7832923,True
23,20,Female,Right,True,0,16,Incongruent,-0.001084766,0.3242639,2022-08-08 11:17:13.329,2022-08-08 11:17:16.345,3.017472,True,4,4,3,3,0.8520752,True
23,20,Female,Right,True,0,17,Incongruent,-0.004934679,0.4598523,2022-08-08 11:17:18.667,2022-08-08 11:17:22.650,3.976727,True,4,4,3,3,2.082798,True
23,20,Female,Right,True,0,18,Random,0.004949935,0.5798137,2022-08-08 11:17:26.329,2022-08-08 11:17:31.135,4.801576,True,1,1,3,3,0.6893671,True
23,20,Female,Right,True,0,19,Novel,-0.0009079198,0.4491541,2022-08-08 11:17:33.298,2022-08-08 11:17:35.559,2.254333,True,2,2,1,1,1.270445,True
23,20,Female,Right,True,0,20,Congruent,0.003828701,0.5059968,2022-08-08 11:17:38.347,2022-08-08 11:17:41.077,2.724645,True,3,3,4,4,0.8240137,True
23,20,Female,Right,False,1,1,Incongruent,0.002153683,0.4730844,2022-08-08 11:25:50.736,2022-08-08 11:25:53.956,3.216858,True,4,4,1,1,1.576528,True
23,20,Female,Right,False,1,2,Incongruent,-0.003968094,0.3623717,2022-08-08 11:25:56.913,2022-08-08 11:26:00.088,3.173318,True,4,4,3,3,1.196199,True
23,20,Female,Right,False,1,3,Congruent,-0.001444493,0.5716789,2022-08-08 11:26:02.876,2022-08-08 11:26:06.373,3.482577,True,3,3,1,1,1.329356,True
23,20,Female,Right,False,1,4,Random,-0.00387444,0.567613,2022-08-08 11:26:09.266,2022-08-08 11:26:11.638,2.367289,True,1,1,3,3,0.7803315,True
23,20,Female,Right,False,1,5,Incongruent,0.004420322,0.4851463,2022-08-08 11:26:13.922,2022-08-08 11:26:16.365,2.432687,True,4,4,3,3,1.060297,True
23,20,Female,Right,False,1,6,Incongruent,-0.004976846,0.3125334,2022-08-08 11:26:18.770,2022-08-08 11:26:21.633,2.857894,True,4,4,2,2,1.115832,True
23,20,Female,Right,False,1,7,Random,-0.003860514,0.4680229,2022-08-08 11:26:24.234,2022-08-08 11:26:26.894,2.6597,True,1,1,4,4,0.7842893,True
23,20,Female,Right,False,1,8,Novel,-0.004293073,0.407327,2022-08-08 11:26:29.091,2022-08-08 11:26:31.776,2.680493,True,2,2,1,1,1.06966,True
23,20,Female,Right,False,1,9,Congruent,0.001697775,0.3955388,2022-08-08 11:26:34.263,2022-08-08 11:26:37.061,2.790877,True,3,3,1,1,1.227394,True
23,20,Female,Right,False,1,10,Congruent,0.003994528,0.3575312,2022-08-08 11:26:39.668,2022-08-08 11:26:42.600,2.925047,True,3,3,1,1,1.140871,True
23,20,Female,Right,False,1,11,Congruent,-0.00107226,0.5030584,2022-08-08 11:26:45.267,2022-08-08 11:26:47.192,1.919858,True,3,3,2,2,1.341596,True
23,20,Female,Right,False,1,12,Novel,-0.001285799,0.4217421,2022-08-08 11:26:49.969,2022-08-08 11:26:52.295,2.322976,True,2,2,3,3,0.8061983,True
23,20,Female,Right,False,1,13,Novel,0.0001377505,0.5133673,2022-08-08 11:26:54.637,2022-08-08 11:26:56.540,1.896491,True,2,2,3,3,0.8017209,True
23,20,Female,Right,False,1,14,Novel,0.0008868654,0.5976877,2022-08-08 11:26:58.963,2022-08-08 11:27:01.397,2.437514,True,2,2,4,4,1.143376,True
23,20,Female,Right,False,1,15,Random,-0.0006739525,0.4253099,2022-08-08 11:27:03.999,2022-08-08 11:27:06.211,2.212907,True,1,1,3,3,0.6726989,True
23,20,Female,Right,False,1,16,Novel,0.002536949,0.3648366,2022-08-08 11:27:08.253,2022-08-08 11:27:10.178,1.919494,True,2,2,4,4,0.8739473,True
23,20,Female,Right,False,1,17,Congruent,-0.003784657,0.5925332,2022-08-08 11:27:12.666,2022-08-08 11:27:15.013,2.347553,True,3,3,1,1,1.27331,True
23,20,Female,Right,False,1,18,Random,0.003172425,0.4496944,2022-08-08 11:27:17.735,2022-08-08 11:27:19.526,1.788599,True,1,1,4,4,1.251528,True
23,20,Female,Right,False,1,19,Incongruent,0.004267123,0.3327538,2022-08-08 11:27:22.128,2022-08-08 11:27:24.565,2.434972,True,4,4,1,1,1.521086,True
23,20,Female,Right,False,1,20,Congruent,0.00144805,0.3358053,2022-08-08 11:27:27.432,2022-08-08 11:27:30.250,2.815751,True,3,3,4,4,0.9862717,True
23,20,Female,Right,False,1,21,Congruent,-0.0003053672,0.3583988,2022-08-08 11:27:32.614,2022-08-08 11:27:35.790,3.171832,True,3,3,4,4,1.099271,True
23,20,Female,Right,False,1,22,Incongruent,0.003435407,0.3408193,2022-08-08 11:27:38.233,2022-08-08 11:27:40.626,2.392392,True,4,4,3,3,0.7126808,True
23,20,Female,Right,False,1,23,Random,-0.002692029,0.3514134,2022-08-08 11:27:42.712,2022-08-08 11:27:45.753,3.039663,True,1,1,3,3,0.6678331,True
23,20,Female,Right,False,1,24,Novel,0.004432317,0.4656819,2022-08-08 11:27:47.893,2022-08-08 11:27:50.399,2.501602,True,2,2,3,3,0.7972959,True
23,20,Female,Right,False,1,25,Congruent,0.001555609,0.5305023,2022-08-08 11:27:52.741,2022-08-08 11:27:56.165,3.415421,True,3,3,2,2,1.141357,True
23,20,Female,Right,False,1,26,Random,-0.001236357,0.3455919,2022-08-08 11:27:58.663,2022-08-08 11:28:01.125,2.457175,True,1,1,4,4,0.8715764,True
23,20,Female,Right,False,1,27,Novel,3.775535E-05,0.3518569,2022-08-08 11:28:03.386,2022-08-08 11:28:05.604,2.210529,True,2,2,4,4,0.8724143,True
23,20,Female,Right,False,1,28,Random,-0.002344979,0.4745613,2022-08-08 11:28:07.970,2022-08-08 11:28:10.631,2.647814,True,1,1,3,3,0.6431382,True
23,20,Female,Right,False,1,29,Random,0.003760893,0.3321294,2022-08-08 11:28:12.627,2022-08-08 11:28:14.595,1.966583,True,1,1,3,3,0.7405449,True
23,20,Female,Right,False,1,30,Incongruent,-0.003943315,0.465352,2022-08-08 11:28:16.813,2022-08-08 11:28:18.850,2.034529,True,4,4,1,1,1.610505,True
23,20,Female,Right,False,1,31,Random,0.004110751,0.4501561,2022-08-08 11:28:21.916,2022-08-08 11:28:24.627,2.702539,True,1,1,2,2,1.492479,True
23,20,Female,Right,False,1,32,Random,-0.002237065,0.3305798,2022-08-08 11:28:27.469,2022-08-08 11:28:30.065,2.593136,True,1,1,3,3,0.8464863,True
23,20,Female,Right,False,1,33,Congruent,0.004390313,0.4213946,2022-08-08 11:28:32.338,2022-08-08 11:28:34.689,2.345109,True,3,3,2,2,1.005044,True
23,20,Female,Right,False,1,34,Incongruent,-0.003016898,0.4723672,2022-08-08 11:28:37.176,2022-08-08 11:28:39.058,1.876529,True,4,4,3,3,1.001921,True
23,20,Female,Right,False,1,35,Novel,0.002640078,0.5428205,2022-08-08 11:28:41.609,2022-08-08 11:28:43.712,2.098318,True,2,2,4,4,0.97627,True
23,20,Female,Right,False,1,36,Novel,-0.002268435,0.3959112,2022-08-08 11:28:46.089,2022-08-08 11:28:48.572,2.481363,True,2,2,4,4,1.032454,True
23,20,Female,Right,False,1,37,Congruent,-0.0003371127,0.38854,2022-08-08 11:28:51.017,2022-08-08 11:28:52.964,1.936847,True,3,3,1,1,0.8729196,True
23,20,Female,Right,False,1,38,Novel,0.0001592403,0.3389111,2022-08-08 11:28:55.184,2022-08-08 11:28:57.241,2.055453,True,2,2,1,1,1.070886,True
23,20,Female,Right,False,1,39,Incongruent,-0.004263718,0.5038635,2022-08-08 11:28:59.816,2022-08-08 11:29:01.497,1.673597,True,4,4,2,2,1.252259,True
23,20,Female,Right,False,1,40,Random,-9.481143E-05,0.4091445,2022-08-08 11:29:04.161,2022-08-08 11:29:06.623,2.457007,True,1,1,4,4,1.049765,True
23,20,Female,Right,False,1,41,Random,0.004064867,0.3995188,2022-08-08 11:29:09.088,2022-08-08 11:29:11.838,2.750376,True,1,1,3,3,0.6030772,True
23,20,Female,Right,False,1,42,Novel,-0.0004010266,0.326107,2022-08-08 11:29:13.792,2022-08-08 11:29:15.671,1.875832,True,2,2,3,3,0.6902221,True
23,20,Female,Right,False,1,43,Congruent,0.004395689,0.4465062,2022-08-08 11:29:17.822,2022-08-08 11:29:19.815,1.987901,True,3,3,4,4,0.8291118,True
23,20,Female,Right,False,1,44,Novel,-0.004308132,0.3280996,2022-08-08 11:29:21.977,2022-08-08 11:29:24.373,2.387615,True,2,2,1,1,1.068871,True
23,20,Female,Right,False,1,45,Novel,0.002008995,0.5728297,2022-08-08 11:29:27.038,2022-08-08 11:29:28.874,1.830248,True,2,2,1,1,1.02934,True
23,20,Female,Right,False,1,46,Incongruent,-0.001514503,0.5612467,2022-08-08 11:29:31.494,2022-08-08 11:29:33.486,1.989901,True,4,4,3,3,1.037946,True
23,20,Female,Right,False,1,47,Incongruent,-0.00227513,0.4942636,2022-08-08 11:29:36.028,2022-08-08 11:29:38.179,2.143914,True,4,4,3,3,0.8738101,True
23,20,Female,Right,False,1,48,Congruent,-0.001643938,0.3161466,2022-08-08 11:29:40.373,2022-08-08 11:29:42.187,1.806597,True,3,3,1,1,1.103451,True
23,20,Female,Right,False,1,49,Incongruent,0.004620435,0.3083174,2022-08-08 11:29:44.619,2022-08-08 11:29:46.702,2.075303,True,4,4,2,2,1.386308,True
23,20,Female,Right,False,1,50,Random,0.002659855,0.3632072,2022-08-08 11:29:49.454,2022-08-08 11:29:51.459,1.998349,True,1,1,4,4,0.874973,True
23,20,Female,Right,False,1,51,Incongruent,-0.0005988521,0.4543746,2022-08-08 11:29:53.801,2022-08-08 11:29:55.593,1.787418,True,4,4,1,1,1.06795,True
23,20,Female,Right,False,1,52,Congruent,-0.00304326,0.3777986,2022-08-08 11:29:58.057,2022-08-08 11:30:00.117,2.054322,True,3,3,2,2,0.7812762,True
23,20,Female,Right,False,2,1,Novel,-0.0009325449,0.5275397,2022-08-08 11:37:25.149,2022-08-08 11:37:30.291,5.139272,True,2,2,3,3,0.7860453,True
23,20,Female,Right,False,2,2,Incongruent,-0.002247338,0.4688046,2022-08-08 11:37:32.567,2022-08-08 11:37:35.251,2.680055,True,4,4,3,3,0.8912131,True
23,20,Female,Right,False,2,3,Congruent,-0.00474029,0.5357811,2022-08-08 11:37:37.682,2022-08-08 11:37:39.696,2.01007,True,3,3,4,4,0.963352,True
23,20,Female,Right,False,2,4,Incongruent,0.0002581985,0.3038023,2022-08-08 11:37:41.971,2022-08-08 11:37:44.811,2.838376,True,4,4,2,2,0.9545617,True
23,20,Female,Right,False,2,5,Congruent,-0.000548969,0.3808057,2022-08-08 11:37:47.177,2022-08-08 11:37:49.033,1.855697,True,3,3,1,1,0.8750154,True
23,20,Female,Right,False,2,6,Random,0.004287475,0.5272083,2022-08-08 11:37:51.476,2022-08-08 11:37:53.068,1.584364,True,1,1,2,2,0.8932332,True
23,20,Female,Right,False,2,7,Random,0.004642379,0.4344231,2022-08-08 11:37:55.419,2022-08-08 11:37:57.146,1.719158,True,1,1,2,2,0.8053051,True
23,20,Female,Right,False,2,8,Congruent,-0.003944764,0.5438609,2022-08-08 11:37:59.507,2022-08-08 11:38:01.815,2.298954,True,3,3,4,4,1.161642,True
23,20,Female,Right,False,2,9,Novel,0.004844503,0.3631228,2022-08-08 11:38:04.344,2022-08-08 11:38:06.202,1.854597,True,2,2,4,4,1.092874,True
23,20,Female,Right,False,2,10,Novel,0.004759256,0.3612577,2022-08-08 11:38:08.680,2022-08-08 11:38:10.803,2.12458,True,2,2,4,4,0.7804812,True
23,20,Female,Right,False,2,11,Random,0.004076894,0.4741289,2022-08-08 11:38:13.070,2022-08-08 11:38:15.799,2.72541,True,1,1,3,3,0.6658053,True
23,20,Female,Right,False,2,12,Incongruent,-0.00298418,0.5419074,2022-08-08 11:38:18.015,2022-08-08 11:38:20.209,2.190342,True,4,4,1,1,1.209178,True
23,20,Female,Right,False,2,13,Congruent,-0.004869393,0.5366877,2022-08-08 11:38:22.986,2022-08-08 11:38:25.179,2.190544,True,3,3,2,2,0.8248439,True
23,20,Female,Right,False,2,14,Random,0.003926566,0.3685453,2022-08-08 11:38:27.399,2022-08-08 11:38:29.413,2.010646,True,1,1,3,3,0.6255771,True
23,20,Female,Right,False,2,15,Random,0.0002236157,0.5158846,2022-08-08 11:38:31.567,2022-08-08 11:38:33.511,1.946216,True,1,1,3,3,0.6035958,True
23,20,Female,Right,False,2,16,Incongruent,0.001651012,0.3761992,2022-08-08 11:38:35.509,2022-08-08 11:38:38.416,2.904546,True,4,4,1,1,1.203479,True
23,20,Female,Right,False,2,17,Random,0.002713927,0.3658761,2022-08-08 11:38:41.003,2022-08-08 11:38:42.773,1.763709,True,1,1,4,4,0.7566644,True
23,20,Female,Right,False,2,18,Congruent,0.002016131,0.4358845,2022-08-08 11:38:44.991,2022-08-08 11:38:47.877,2.879662,True,3,3,4,4,1.024643,True
23,20,Female,Right,False,2,19,Novel,0.002887394,0.5263016,2022-08-08 11:38:50.431,2022-08-08 11:38:52.311,1.876127,True,2,2,1,1,1.282587,True
23,20,Female,Right,False,2,20,Incongruent,0.002193911,0.4795542,2022-08-08 11:38:55.088,2022-08-08 11:38:56.879,1.78717,True,4,4,2,2,0.7354081,True
23,20,Female,Right,False,2,21,Novel,0.003454144,0.5868489,2022-08-08 11:38:59.211,2022-08-08 11:39:00.955,1.741674,True,2,2,3,3,0.7471396,True
23,20,Female,Right,False,2,22,Novel,0.004774077,0.5846533,2022-08-08 11:39:03.297,2022-08-08 11:39:05.113,1.80807,True,2,2,1,1,0.9824342,True
23,20,Female,Right,False,2,23,Incongruent,0.0001870068,0.3580053,2022-08-08 11:39:07.475,2022-08-08 11:39:09.668,2.189532,True,4,4,1,1,1.00907,True
23,20,Female,Right,False,2,24,Random,-0.004427858,0.3069636,2022-08-08 11:39:11.999,2022-08-08 11:39:14.060,2.053146,True,1,1,2,2,0.7778409,True
23,20,Female,Right,False,2,25,Novel,0.004683295,0.3140109,2022-08-08 11:39:16.155,2022-08-08 11:39:18.637,2.481641,True,2,2,3,3,0.7309235,True
23,20,Female,Right,False,2,26,Congruent,0.002055728,0.5284662,2022-08-08 11:39:20.912,2022-08-08 11:39:22.861,1.942275,True,3,3,4,4,0.8508807,True
23,20,Female,Right,False,2,27,Congruent,-0.002263241,0.5050776,2022-08-08 11:39:25.249,2022-08-08 11:39:27.515,2.258514,True,3,3,2,2,1.056454,True
23,20,Female,Right,False,2,28,Congruent,-0.002224427,0.3697078,2022-08-08 11:39:29.962,2022-08-08 11:39:31.862,1.900018,True,3,3,4,4,0.7859629,True
23,20,Female,Right,False,2,29,Random,-0.002630841,0.5353621,2022-08-08 11:39:34.216,2022-08-08 11:39:36.391,2.165061,True,1,1,2,2,0.899072,True
23,20,Female,Right,False,2,30,Novel,0.0004381509,0.3605943,2022-08-08 11:39:38.663,2022-08-08 11:39:41.302,2.63637,True,2,2,3,3,0.7133536,True
23,20,Female,Right,False,2,31,Congruent,-0.003999987,0.3551659,2022-08-08 11:39:43.387,2022-08-08 11:39:45.426,2.031106,True,3,3,1,1,0.9114419,True
23,20,Female,Right,False,2,32,Random,0.001155252,0.3194214,2022-08-08 11:39:47.664,2022-08-08 11:39:49.792,2.119776,True,1,1,3,3,0.6222562,True
23,20,Female,Right,False,2,33,Incongruent,0.001021413,0.3941557,2022-08-08 11:39:51.830,2022-08-08 11:39:53.957,2.120889,True,4,4,3,3,0.7182468,True
23,20,Female,Right,False,2,34,Random,-0.0006603487,0.5621965,2022-08-08 11:39:56.245,2022-08-08 11:39:58.480,2.236343,True,1,1,2,2,0.6932093,True
23,20,Female,Right,False,2,35,Incongruent,-0.00395573,0.5668145,2022-08-08 11:40:00.768,2022-08-08 11:40:03.318,2.546883,True,4,4,1,1,1.180861,True
23,20,Female,Right,False,2,36,Novel,-0.00387431,0.5462774,2022-08-08 11:40:06.061,2022-08-08 11:40:07.852,1.787174,True,2,2,3,3,0.6682574,True
23,20,Female,Right,False,2,37,Incongruent,0.001786615,0.3238025,2022-08-08 11:40:09.847,2022-08-08 11:40:11.752,1.897129,True,4,4,2,2,0.6935214,True
23,20,Female,Right,False,2,38,Incongruent,0.003560446,0.3154339,2022-08-08 11:40:13.790,2022-08-08 11:40:17.327,3.527843,True,4,4,2,2,0.7943231,True
23,20,Female,Right,False,2,39,Novel,0.002957015,0.3794195,2022-08-08 11:40:19.512,2022-08-08 11:40:21.770,2.257085,True,2,2,4,4,0.9362764,True
23,20,Female,Right,False,2,40,Incongruent,0.001280775,0.5992758,2022-08-08 11:40:24.324,2022-08-08 11:40:25.957,1.631601,True,4,4,1,1,1.04275,True
23,20,Female,Right,False,2,41,Congruent,0.00310395,0.4860568,2022-08-08 11:40:28.501,2022-08-08 11:40:30.429,1.919969,True,3,3,4,4,1.090215,True
23,20,Female,Right,False,2,42,Incongruent,-0.002895978,0.4448002,2022-08-08 11:40:32.980,2022-08-08 11:40:35.353,2.366827,True,4,4,2,2,0.9184201,True
23,20,Female,Right,False,2,43,Random,-0.001822668,0.4315329,2022-08-08 11:40:37.706,2022-08-08 11:40:40.144,2.437239,True,1,1,4,4,0.9379966,True
23,20,Female,Right,False,2,44,Random,3.859121E-05,0.5606016,2022-08-08 11:40:42.656,2022-08-08 11:40:44.555,1.901161,True,1,1,2,2,0.7850142,True
23,20,Female,Right,False,2,45,Congruent,-0.001204152,0.4702985,2022-08-08 11:40:46.832,2022-08-08 11:40:48.777,1.947554,True,3,3,1,1,0.892072,True
23,20,Female,Right,False,2,46,Novel,0.001587401,0.5624546,2022-08-08 11:40:51.244,2022-08-08 11:40:53.593,2.346311,True,2,2,3,3,0.6496869,True
23,20,Female,Right,False,2,47,Congruent,0.0008554049,0.4120084,2022-08-08 11:40:55.678,2022-08-08 11:40:57.669,1.989903,True,3,3,2,2,0.7576115,True
23,20,Female,Right,False,2,48,Incongruent,0.004134719,0.4167438,2022-08-08 11:40:59.867,2022-08-08 11:41:02.106,2.233888,True,4,4,2,2,0.8448326,True
23,20,Female,Right,False,2,49,Novel,-0.002494128,0.350994,2022-08-08 11:41:04.313,2022-08-08 11:41:07.018,2.704271,True,2,2,3,3,0.8027614,True
23,20,Female,Right,False,2,50,Novel,0.001102293,0.5430536,2022-08-08 11:41:09.371,2022-08-08 11:41:11.028,1.653039,True,2,2,4,4,0.8697045,True
23,20,Female,Right,False,2,51,Congruent,-0.004611779,0.5890869,2022-08-08 11:41:13.504,2022-08-08 11:41:15.944,2.432117,True,3,4,4,2,2.337687,False
23,20,Female,Right,False,2,52,Random,-0.000644688,0.4221367,2022-08-08 11:41:19.728,2022-08-08 11:41:21.585,1.853475,True,1,1,2,2,0.7114512,True
23,20,Female,Right,False,3,1,Novel,-0.00194869,0.5216184,2022-08-08 11:48:42.744,2022-08-08 11:48:45.091,2.348033,True,2,2,4,4,0.8425449,True
23,20,Female,Right,False,3,2,Random,-0.004726202,0.3425572,2022-08-08 11:48:47.300,2022-08-08 11:48:49.560,2.252302,True,1,1,2,2,1.115053,True
23,20,Female,Right,False,3,3,Novel,0.003409981,0.3785246,2022-08-08 11:48:52.071,2022-08-08 11:48:53.816,1.742462,True,2,2,3,3,0.7844998,True
23,20,Female,Right,False,3,4,Novel,0.003879267,0.5738471,2022-08-08 11:48:56.193,2022-08-08 11:48:58.629,2.432801,True,2,2,3,3,0.6047856,True
23,20,Female,Right,False,3,5,Incongruent,-0.00204707,0.4280845,2022-08-08 11:49:00.671,2022-08-08 11:49:03.579,2.904241,True,4,4,1,1,1.05763,True
23,20,Female,Right,False,3,6,Novel,-0.004639826,0.3328919,2022-08-08 11:49:05.975,2022-08-08 11:49:07.879,1.896187,True,2,2,3,3,0.7406237,True
23,20,Female,Right,False,3,7,Incongruent,0.003103069,0.578016,2022-08-08 11:49:10.231,2022-08-08 11:49:12.425,2.187912,True,4,4,2,2,1.008557,True
23,20,Female,Right,False,3,8,Random,-0.002202155,0.3497725,2022-08-08 11:49:14.803,2022-08-08 11:49:17.890,3.082849,True,1,1,2,2,1.169841,True
23,20,Female,Right,False,3,9,Incongruent,0.003387289,0.3853157,2022-08-08 11:49:20.453,2022-08-08 11:49:23.808,3.350645,True,4,4,1,1,1.058563,True
23,20,Female,Right,False,3,10,Random,-0.002067848,0.5865265,2022-08-08 11:49:26.460,2022-08-08 11:49:28.923,2.455456,True,1,1,4,4,0.7622828,True
23,20,Female,Right,False,3,11,Novel,-0.0009365063,0.460182,2022-08-08 11:49:31.165,2022-08-08 11:49:32.867,1.697265,True,2,2,1,1,1.258447,True
23,20,Female,Right,False,3,12,Random,-0.0008259183,0.4096802,2022-08-08 11:49:35.541,2022-08-08 11:49:37.535,1.986114,True,1,1,4,4,0.8265199,True
23,20,Female,Right,False,3,13,Incongruent,-0.001778325,0.3722103,2022-08-08 11:49:39.757,2022-08-08 11:49:41.789,2.033708,True,4,4,1,1,0.9634817,True
23,20,Female,Right,False,3,14,Novel,-0.0004382352,0.427915,2022-08-08 11:49:44.189,2022-08-08 11:49:46.383,2.189268,True,2,2,1,1,1.187279,True
23,20,Female,Right,False,3,15,Congruent,-0.001232917,0.3650465,2022-08-08 11:49:48.956,2022-08-08 11:49:51.754,2.790863,True,3,3,4,4,0.7160589,True
23,20,Female,Right,False,3,16,Incongruent,0.00209821,0.4362226,2022-08-08 11:49:53.928,2022-08-08 11:49:56.367,2.43357,True,4,4,1,1,0.9012716,True
23,20,Female,Right,False,3,17,Random,-0.003028269,0.5555121,2022-08-08 11:49:58.853,2022-08-08 11:50:00.714,1.852475,True,1,1,2,2,0.6672925,True
23,20,Female,Right,False,3,18,Congruent,0.0007005781,0.3146661,2022-08-08 11:50:02.717,2022-08-08 11:50:04.688,1.965999,True,3,3,2,2,1.005467,True
23,20,Female,Right,False,3,19,Congruent,-0.0009114975,0.4461511,2022-08-08 11:50:07.152,2022-08-08 11:50:09.792,2.634179,True,3,3,4,4,0.6490794,True
23,20,Female,Right,False,3,20,Congruent,-0.001303341,0.5138363,2022-08-08 11:50:11.990,2022-08-08 11:50:15.034,3.037938,True,3,3,4,4,0.8279896,True
23,20,Female,Right,False,3,21,Random,-0.001992499,0.5241478,2022-08-08 11:50:17.400,2022-08-08 11:50:19.322,1.920928,True,1,1,2,2,0.7175708,True
23,20,Female,Right,False,3,22,Congruent,0.001743432,0.5107512,2022-08-08 11:50:21.564,2022-08-08 11:50:23.464,1.899269,True,3,3,1,1,0.9590148,True
23,20,Female,Right,False,3,23,Congruent,0.001988482,0.4202012,2022-08-08 11:50:25.862,2022-08-08 11:50:28.212,2.343841,True,3,3,2,2,0.6481453,True
23,20,Female,Right,False,3,24,Novel,0.004625325,0.5384964,2022-08-08 11:50:30.407,2022-08-08 11:50:32.356,1.944572,True,2,2,3,3,0.7858803,True
23,20,Female,Right,False,3,25,Incongruent,0.003874095,0.4169162,2022-08-08 11:50:34.576,2022-08-08 11:50:36.679,2.099614,True,4,4,3,3,0.9131387,True
23,20,Female,Right,False,3,26,Congruent,-0.004693942,0.4541508,2022-08-08 11:50:39.053,2022-08-08 11:50:41.672,2.611792,True,3,2,4,3,1.408973,False
23,20,Female,Right,False,3,27,Random,0.001627661,0.3880702,2022-08-08 11:50:44.482,2022-08-08 11:50:46.965,2.479997,True,1,1,2,2,0.6246592,True
23,20,Female,Right,False,3,28,Congruent,-0.00498832,0.3620698,2022-08-08 11:50:48.962,2022-08-08 11:50:50.796,1.832106,True,3,3,4,4,1.051753,True
23,20,Female,Right,False,3,29,Novel,-0.001945701,0.4655392,2022-08-08 11:50:53.353,2022-08-08 11:50:55.565,2.214453,True,2,2,4,4,1.47856,True
23,20,Female,Right,False,3,30,Novel,-0.002373857,0.5532608,2022-08-08 11:50:58.615,2022-08-08 11:50:59.735,1.117536,True,2,2,1,1,0.9563128,True
23,20,Female,Right,False,3,31,Incongruent,0.004063947,0.4693357,2022-08-08 11:51:02.178,2022-08-08 11:51:03.854,1.675826,True,4,4,3,3,0.6469693,True
23,20,Female,Right,False,3,32,Congruent,0.001282295,0.4448685,2022-08-08 11:51:05.961,2022-08-08 11:51:07.529,1.562909,True,3,3,1,1,0.8520266,True
23,20,Female,Right,False,3,33,Incongruent,0.001037415,0.421286,2022-08-08 11:51:09.816,2022-08-08 11:51:11.339,1.51958,True,4,4,1,1,1.073929,True
23,20,Female,Right,False,3,34,Congruent,-0.001773392,0.4653829,2022-08-08 11:51:13.893,2022-08-08 11:51:15.551,1.65254,True,3,3,2,2,0.8612932,True
23,20,Female,Right,False,3,35,Incongruent,0.001894976,0.5251638,2022-08-08 11:51:17.958,2022-08-08 11:51:20.108,2.143059,True,4,4,1,1,1.051036,True
23,20,Female,Right,False,3,36,Random,-0.004249169,0.4957395,2022-08-08 11:51:22.661,2022-08-08 11:51:24.475,1.8091,True,1,1,2,2,1.084976,True
23,20,Female,Right,False,3,37,Novel,-0.003166253,0.5466289,2022-08-08 11:51:27.130,2022-08-08 11:51:29.031,1.902446,True,2,2,1,1,0.9143519,True
23,20,Female,Right,False,3,38,Random,0.003450292,0.3750165,2022-08-08 11:51:31.330,2022-08-08 11:51:33.410,2.078896,True,1,1,3,3,0.8967024,True
23,20,Female,Right,False,3,39,Incongruent,-0.002873777,0.549336,2022-08-08 11:51:35.875,2022-08-08 11:51:37.865,1.99004,True,4,4,1,1,1.183224,True
23,20,Female,Right,False,3,40,Random,-0.004427047,0.3301153,2022-08-08 11:51:40.400,2022-08-08 11:51:41.898,1.498749,True,1,1,4,4,1.037569,True
23,20,Female,Right,False,3,41,Random,0.002267847,0.5891655,2022-08-08 11:51:44.555,2022-08-08 11:51:46.456,1.902749,True,1,1,4,4,0.9191435,True
23,20,Female,Right,False,3,42,Congruent,0.0009253053,0.5671045,2022-08-08 11:51:48.966,2022-08-08 11:51:52.074,3.106393,True,3,3,1,1,0.8267812,True
23,20,Female,Right,False,3,43,Random,0.002791602,0.3420428,2022-08-08 11:51:54.261,2022-08-08 11:51:56.187,1.921974,True,1,1,4,4,0.9340813,True
23,20,Female,Right,False,3,44,Random,-0.002980543,0.3241341,2022-08-08 11:51:58.449,2022-08-08 11:52:00.328,1.877897,True,1,1,4,4,0.6914077,True
23,20,Female,Right,False,3,45,Incongruent,0.003661343,0.5514055,2022-08-08 11:52:02.593,2022-08-08 11:52:04.698,2.099816,True,4,4,1,1,0.7821053,True
23,20,Female,Right,False,3,46,Novel,-0.0007820958,0.4748878,2022-08-08 11:52:06.960,2022-08-08 11:52:08.706,1.742727,True,2,2,1,1,0.8958471,True
23,20,Female,Right,False,3,47,Congruent,0.003350916,0.432144,2022-08-08 11:52:11.038,2022-08-08 11:52:13.276,2.235024,True,3,3,2,2,0.9131177,True
23,20,Female,Right,False,3,48,Incongruent,0.002744902,0.3828323,2022-08-08 11:52:15.587,2022-08-08 11:52:17.531,1.943213,True,4,4,3,3,0.779321,True
23,20,Female,Right,False,3,49,Incongruent,0.002053623,0.3217847,2022-08-08 11:52:19.637,2022-08-08 11:52:22.033,2.388253,True,4,4,2,2,0.8733898,True
23,20,Female,Right,False,3,50,Congruent,-0.004312221,0.4828915,2022-08-08 11:52:24.407,2022-08-08 11:52:26.535,2.120152,True,3,3,2,2,0.8905562,True
23,20,Female,Right,False,3,51,Novel,8.617807E-05,0.4117566,2022-08-08 11:52:28.866,2022-08-08 11:52:30.856,1.990212,True,2,2,3,3,0.9643544,True
23,20,Female,Right,False,3,52,Novel,0.004674485,0.4424098,2022-08-08 11:52:33.276,2022-08-08 11:52:35.000,1.720895,True,2,2,3,3,0.6240339,True
